"Time (s)","Acceleration x (m/s^2)","Acceleration y (m/s^2)","Acceleration z (m/s^2)","Absolute acceleration (m/s^2)"
-1.737291692E-3,-3.198249207E0,-8.786129150E0,-2.668500824E0,9.723464407E0
8.263708325E-3,-3.044069824E0,-8.876391449E0,-2.623294830E0,9.743631870E0
1.826470834E-2,-3.038830719E0,-9.059760132E0,-2.699636078E0,9.929842936E0
2.826570836E-2,-3.096011810E0,-9.417815552E0,-2.534080353E0,1.023240451E1
3.826670838E-2,-3.106639709E0,-9.740245056E0,-2.429447937E0,1.050836816E1
4.826770839E-2,-2.995271301E0,-9.878856812E0,-2.356998596E0,1.058862146E1
5.826870829E-2,-2.873274994E0,-9.918224945E0,-2.294428711E0,1.057786833E1
6.826970831E-2,-2.904859314E0,-9.903256073E0,-2.210902405E0,1.055465669E1
7.827070833E-2,-3.145558777E0,-9.828262024E0,-2.117047577E0,1.053428521E1
8.827170834E-2,-3.589535522E0,-9.657916260E0,-2.043999481E0,1.050419181E1
9.827370837E-2,-4.052073669E0,-9.251361694E0,-1.946252747E0,1.028566449E1
1.082747084E-1,-4.348457336E0,-8.805738373E0,-1.856738892E0,9.994878129E0
1.182757084E-1,-4.546046448E0,-8.507708130E0,-1.836830292E0,9.819449142E0
1.282767083E-1,-4.631069641E0,-8.315507812E0,-1.942660217E0,9.714340169E0
1.382777083E-1,-4.656965790E0,-8.143665161E0,-2.043849792E0,9.601246513E0
1.482787083E-1,-4.655468903E0,-7.955057373E0,-2.266885986E0,9.491843898E0
1.582797084E-1,-4.661456451E0,-7.722441101E0,-2.542911987E0,9.371855429E0
1.682807084E-1,-4.704566803E0,-7.569309540E0,-2.745889893E0,9.325626360E0
1.782817084E-1,-4.718038788E0,-7.506589966E0,-2.851719818E0,9.313489617E0
1.882827083E-1,-4.630620575E0,-7.424111481E0,-3.182082825E0,9.310517133E0
1.982837083E-1,-4.592449951E0,-7.340136108E0,-3.578907623E0,9.368926001E0
2.082847083E-1,-4.595294037E0,-7.444918213E0,-3.726650391E0,9.509545605E0
2.182857083E-1,-4.517306213E0,-7.737859039E0,-3.680396576E0,9.686373774E0
2.282867084E-1,-4.439767456E0,-7.948920135E0,-3.618275757E0,9.797386684E0
2.382877084E-1,-4.380191345E0,-7.917784882E0,-3.479664001E0,9.694609596E0
2.482887084E-1,-4.290677490E0,-7.712411957E0,-3.283122711E0,9.416480566E0
2.582897083E-1,-4.219874725E0,-7.395820313E0,-3.307821350E0,9.134942960E0
2.682907083E-1,-4.302951965E0,-7.097490692E0,-3.477119293E0,8.998895950E0
2.782917083E-1,-4.363276520E0,-7.065756683E0,-3.423830109E0,8.982522592E0
2.882927083E-1,-4.274511108E0,-7.356751556E0,-3.160078583E0,9.076306260E0
2.982937084E-1,-4.136797485E0,-7.763156433E0,-3.006947021E0,9.296312260E0
3.082947084E-1,-4.100722504E0,-8.102650452E0,-2.970872040E0,9.554839092E0
3.182957084E-1,-4.163292389E0,-8.287066956E0,-2.949167175E0,9.731704335E0
3.282967083E-1,-4.247267761E0,-8.206384735E0,-2.997067566E0,9.714239438E0
3.382977083E-1,-4.327201538E0,-7.910450134E0,-3.132685547E0,9.545345107E0
3.482997083E-1,-4.365671539E0,-7.527845764E0,-3.288361816E0,9.302734720E0
3.583007084E-1,-4.310286713E0,-7.252418518E0,-3.337609406E0,9.072804553E0
3.683017084E-1,-4.176764374E0,-7.104825439E0,-3.343746643E0,8.894073688E0
3.783027084E-1,-4.067491608E0,-7.017257538E0,-3.428171082E0,8.805608911E0
3.883037084E-1,-4.041894836E0,-6.974895630E0,-3.523373108E0,8.797740674E0
3.983047083E-1,-4.070335693E0,-7.018305359E0,-3.548371124E0,8.855234633E0
4.083057083E-1,-4.072880402E0,-7.076384583E0,-3.578159180E0,8.914415104E0
4.183067083E-1,-4.091591492E0,-7.227420502E0,-3.646566925E0,9.070511473E0
4.283077084E-1,-4.169878693E0,-7.476801910E0,-3.595822449E0,9.285493751E0
4.383087084E-1,-4.233197021E0,-7.842491455E0,-3.543132019E0,9.590537720E0
4.483097084E-1,-4.255949707E0,-8.267158356E0,-3.501518555E0,9.935776134E0
4.583107084E-1,-4.357588348E0,-8.844208374E0,-3.261268158E0,1.038481911E1
4.683122917E-1,-4.493954773E0,-9.378597107E0,-3.233725433E0,1.089085366E1
4.783132917E-1,-4.545298004E0,-9.854158173E0,-2.841540985E0,1.121777707E1
4.883142917E-1,-4.556973724E0,-1.026655060E1,-2.514022064E0,1.151035958E1
4.983152917E-1,-4.571044464E0,-1.035546570E1,-2.585124207E0,1.161089938E1
5.083162917E-1,-4.468657379E0,-1.026969406E1,-2.467768250E0,1.146845216E1
5.183172916E-1,-4.547243958E0,-1.002435425E1,-2.479743347E0,1.128336088E1
5.283182916E-1,-5.030139771E0,-9.595795441E0,-2.748584290E0,1.117749130E1
5.383192917E-1,-6.083349609E0,-9.266330566E0,-3.073708191E0,1.150303033E1
5.483202917E-1,-7.375612335E0,-9.085207214E0,-3.409459991E0,1.218872696E1
5.583212917E-1,-8.434510345E0,-9.115893402E0,-3.350332947E0,1.286332804E1
5.683222917E-1,-8.985364838E0,-9.276958466E0,-3.187920685E0,1.330269063E1
5.783232917E-1,-8.888815613E0,-9.488318939E0,-2.948119354E0,1.333156581E1
5.883242916E-1,-8.581504669E0,-9.632020111E0,-3.214265900E0,1.329471847E1
5.983252916E-1,-8.728349304E0,-9.716743927E0,-3.809428253E0,1.360554805E1
6.083262917E-1,-9.337133331E0,-9.909542999E0,-3.987707520E0,1.418742093E1
6.183282917E-1,-1.000773880E1,-1.014260834E1,-3.676205292E0,1.471536018E1
6.283292917E-1,-1.033645523E1,-1.018736526E1,-3.487298126E0,1.492601641E1
6.383302917E-1,-1.024275009E1,-1.008827133E1,-3.490591278E0,1.479430213E1
6.483312916E-1,-9.956096191E0,-1.008452911E1,-3.625161438E0,1.462748694E1
6.583322916E-1,-9.901459808E0,-1.009919861E1,-4.033661957E0,1.470724813E1
6.683332917E-1,-1.010488678E1,-1.000848724E1,-4.642595673E0,1.496102431E1
6.783342917E-1,-1.042028091E1,-9.738299103E0,-5.206772461E0,1.518312231E1
6.883352917E-1,-1.050844757E1,-9.457632751E0,-5.378315735E0,1.512615509E1
6.983362917E-1,-1.036594391E1,-9.224118347E0,-5.509443054E0,1.492953834E1
7.083372917E-1,-1.022119492E1,-9.025930481E0,-5.615572357E0,1.474703019E1
7.183382916E-1,-1.025936554E1,-8.752748566E0,-5.738466797E0,1.465589267E1
7.283392916E-1,-1.052431458E1,-8.460256805E0,-5.870342560E0,1.472406412E1
7.383402917E-1,-1.093446167E1,-8.096064148E0,-6.242768097E0,1.496933065E1
7.483412917E-1,-1.140732834E1,-7.774233398E0,-6.580914917E0,1.529294889E1
7.583422917E-1,-1.166419418E1,-7.453300781E0,-6.727609863E0,1.539044681E1
7.683432917E-1,-1.172391998E1,-7.145241394E0,-6.945556641E0,1.538653734E1
7.783442917E-1,-1.180280594E1,-6.869365082E0,-7.001091156E0,1.534632471E1
7.883452916E-1,-1.185789139E1,-6.541696472E0,-6.877148895E0,1.518876420E1
7.983462916E-1,-1.169907166E1,-6.162834320E0,-6.691385193E0,1.481969771E1
8.083472917E-1,-1.128802643E1,-5.972579956E0,-6.582860870E0,1.436750880E1
8.183482917E-1,-1.073208252E1,-5.988446960E0,-6.495742035E0,1.390085453E1
8.283492917E-1,-9.956994324E0,-5.943839722E0,-6.278394012E0,1.318670535E1
8.383502917E-1,-9.168583832E0,-5.922583923E0,-6.004613342E0,1.245774102E1
8.483512917E-1,-8.584348755E0,-5.901777191E0,-5.734574890E0,1.189148295E1
8.583522916E-1,-8.205336914E0,-5.777685242E0,-5.480253754E0,1.143426350E1
8.683542917E-1,-7.841743011E0,-5.445376282E0,-5.406307526E0,1.097147289E1
8.783552917E-1,-7.255412292E0,-5.060825958E0,-5.292244720E0,1.030828895E1
8.883562917E-1,-6.420149231E0,-4.822521515E0,-4.835694122E0,9.373311451E0
8.983572917E-1,-5.583239594E0,-4.490960999E0,-4.461622009E0,8.440815482E0
9.083582917E-1,-5.049748993E0,-3.959865417E0,-4.336482239E0,7.745035650E0
9.183592916E-1,-4.809498596E0,-3.238066406E0,-4.177213440E0,7.146010280E0
9.283602916E-1,-4.697381744E0,-2.441123657E0,-4.111799469E0,6.703086963E0
9.383612917E-1,-4.749174042E0,-1.633253632E0,-4.042194214E0,6.446821354E0
9.483622917E-1,-4.934788055E0,-8.372090149E-1,-3.906426544E0,6.349269283E0
9.583632917E-1,-4.868775330E0,-2.155517578E-2,-3.805087280E0,6.179330631E0
9.683642917E-1,-4.677473145E0,7.204518127E-1,-3.580105133E0,5.934219291E0
9.783652917E-1,-4.391567688E0,1.191372528E0,-3.290607147E0,5.615454626E0
9.883662916E-1,-4.219575348E0,1.610351257E0,-3.012934570E0,5.429164025E0
9.983672916E-1,-4.191134491E0,2.129172363E0,-2.667303314E0,5.404950531E0
1.008368292E0,-4.483476562E0,2.519111481E0,-2.252515869E0,5.614384426E0
1.018369292E0,-4.967569885E0,2.789449310E0,-1.759441223E0,5.962668148E0
1.028370292E0,-5.434299316E0,2.965932312E0,-1.378184052E0,6.342535362E0
1.038371292E0,-5.738167419E0,3.021317139E0,-1.059496765E0,6.570955485E0
1.048372292E0,-5.870941315E0,3.014730835E0,-7.616162109E-1,6.643539206E0
1.058373292E0,-5.967789917E0,3.121608582E0,-6.186634827E-1,6.763261132E0
1.068374292E0,-6.222859497E0,3.333418121E0,-4.086502075E-1,7.071255312E0
1.078375292E0,-6.532715149E0,3.466042328E0,-3.567082214E-1,7.403854225E0
1.088376292E0,-6.871311035E0,3.692072296E0,-5.727090454E-1,7.821400695E0
1.098377292E0,-7.067552948E0,4.017794952E0,-7.352709961E-1,8.162940915E0
1.108378292E0,-7.015760651E0,4.347409515E0,-1.267115021E0,8.350236373E0
1.118380292E0,-6.746171265E0,4.708608398E0,-1.805545349E0,8.422696349E0
1.128381292E0,-6.273603973E0,4.975204010E0,-1.867217102E0,8.221755376E0
1.138382292E0,-5.945935364E0,5.290149078E0,-2.318378906E0,8.289433357E0
1.148383292E0,-5.600902863E0,5.735023956E0,-2.779869232E0,8.484591069E0
1.158384292E0,-5.385051727E0,6.043682098E0,-3.789220276E0,8.937732694E0
1.168385292E0,-5.123545532E0,6.174360352E0,-5.619015198E0,9.795242537E0
1.178386292E0,-3.866609344E0,5.916446686E0,-5.791157227E0,9.137423665E0
1.188387292E0,-1.736389160E0,5.285508728E0,-4.436623993E0,7.115847264E0
1.198388292E0,3.296145630E-1,4.903503113E0,-3.328927460E0,5.935886334E0
1.208389292E0,1.750609589E0,5.186115417E0,-2.346520386E0,5.955382857E0
1.218390292E0,1.912572784E0,6.006858673E0,-1.657203827E0,6.518175381E0
1.228391292E0,9.214837646E-1,6.936575317E0,-3.144960022E-1,7.004578303E0
1.238392292E0,-8.879534912E-1,7.670050049E0,4.328997803E-1,7.733403609E0
1.248393292E0,-2.191293182E0,8.452023926E0,3.805087280E-1,8.739751778E0
1.258394292E0,-3.189866638E0,8.818162537E0,1.219663696E0,9.456363954E0
1.268395292E0,-4.819078674E0,8.601562958E0,4.116439819E-1,9.868123193E0
1.278396292E0,-6.437363434E0,8.194709015E0,-1.006057892E0,1.046924335E1
1.288397292E0,-7.157665558E0,7.663314056E0,-1.162931671E0,1.055040135E1
1.298398292E0,-7.033274231E0,7.287595367E0,-1.338067474E0,1.021598831E1
1.308399292E0,-6.452032928E0,7.156917114E0,-1.439406738E0,9.742796480E0
1.318400292E0,-5.707930298E0,7.423213348E0,-1.369352417E0,9.463598192E0
1.328401292E0,-5.149142303E0,7.964787140E0,-1.384920044E0,9.584858067E0
1.338402292E0,-4.955145721E0,8.480464783E0,-1.415606232E0,9.923491979E0
1.348403292E0,-4.961881714E0,8.896749115E0,-1.188977509E0,1.025602664E1
1.358405292E0,-5.068460083E0,9.209598541E0,-1.155147858E0,1.057546025E1
1.368406292E0,-5.099595337E0,9.391470337E0,-1.514700165E0,1.079351214E1
1.378407292E0,-4.940476227E0,9.290729828E0,-1.794019318E0,1.067447757E1
1.388408292E0,-4.715194702E0,8.821605377E0,-1.788780212E0,1.016137378E1
1.398409292E0,-4.621339874E0,8.115523682E0,-1.763782196E0,9.504179843E0
1.408410292E0,-4.686005402E0,7.574398956E0,-1.806593170E0,9.088121096E0
1.418411292E0,-4.736300812E0,7.326664124E0,-1.902244263E0,8.929226495E0
1.428412292E0,-4.866679688E0,7.441026306E0,-2.288890228E0,9.181092644E0
1.438413292E0,-5.072052612E0,7.786358185E0,-2.366728363E0,9.589290622E0
1.448414292E0,-5.248086548E0,7.959697723E0,-2.136207733E0,9.770495573E0
1.458415292E0,-5.206622772E0,8.067323914E0,-1.895358582E0,9.786879992E0
1.468415583E0,-4.970713348E0,8.064030762E0,-1.668580170E0,9.618770353E0
1.478416583E0,-4.722230072E0,7.756869507E0,-1.373543701E0,9.184503454E0
1.488417583E0,-4.526287537E0,7.250173187E0,-1.272204437E0,8.641226431E0
1.498418583E0,-4.606371002E0,6.714586945E0,-1.646426239E0,8.307529778E0
1.508419583E0,-4.547992401E0,6.359076233E0,-2.043700104E0,8.080767014E0
1.518420583E0,-3.826792145E0,6.466403046E0,-3.055296478E0,8.111321904E0
1.528421583E0,-2.671494598E0,7.085515594E0,-3.806135101E0,8.475144780E0
1.538422583E0,-1.867815857E0,7.898325348E0,-3.974684601E0,9.037167535E0
1.548423583E0,-1.827998657E0,8.366252289E0,-4.144730988E0,9.513913570E0
1.558424583E0,-2.391726379E0,8.525670776E0,-4.328249359E0,9.856021498E0
1.568425583E0,-2.924318848E0,8.305029602E0,-4.299359436E0,9.798451356E0
1.578426583E0,-2.886896667E0,7.957751770E0,-4.154460754E0,9.429715253E0
1.588427583E0,-2.327958984E0,7.698041840E0,-4.085454254E0,9.020541983E0
1.598429583E0,-1.704056396E0,7.468419342E0,-4.155658264E0,8.714963642E0
1.608430583E0,-1.116677856E0,7.582033081E0,-4.615202637E0,8.946188599E0
1.618431583E0,-6.750961304E-1,7.559280396E0,-4.640799408E0,8.895813286E0
1.628432583E0,-4.767585754E-1,7.610773315E0,-4.520599365E0,8.864930221E0
1.638433583E0,-6.002517700E-1,7.529192963E0,-4.367617493E0,8.724971714E0
1.648434583E0,-8.957373047E-1,7.490423584E0,-4.098327484E0,8.585166216E0
1.658435583E0,-1.138233032E0,7.551945648E0,-3.806434479E0,8.533252659E0
1.668436583E0,-1.273401947E0,7.713010712E0,-3.623664551E0,8.616439609E0
1.678437583E0,-1.313817902E0,7.882907410E0,-3.723057861E0,8.816320465E0
1.688438583E0,-1.278790741E0,8.232879639E0,-3.872896271E0,9.187760251E0
1.698439583E0,-1.265468445E0,8.234226837E0,-3.944597168E0,9.217578251E0
1.708440583E0,-1.511706390E0,8.002059631E0,-3.860322418E0,9.012230785E0
1.718441583E0,-1.966460724E0,7.685767365E0,-3.811523895E0,8.801460229E0
1.728442583E0,-2.341131592E0,7.367529144E0,-3.813918915E0,8.620171710E0
1.738443583E0,-2.456990662E0,7.339387665E0,-4.062252502E0,8.741013088E0
1.748444583E0,-2.301763458E0,7.472910004E0,-4.270020447E0,8.909297029E0
1.758445583E0,-1.926493835E0,7.900121613E0,-4.569846954E0,9.327743627E0
1.768446583E0,-1.423689423E0,8.087531891E0,-5.152136078E0,9.694306052E0
1.778447583E0,-7.918533325E-1,8.349038086E0,-5.719905396E0,1.015139332E1
1.788448583E0,-1.580712891E-1,8.118367767E0,-5.971981201E0,1.007955561E1
1.798449583E0,2.685415649E-1,7.656428375E0,-5.989943848E0,9.724836108E0
1.808450583E0,4.116439819E-1,7.377258911E0,-6.150260468E0,9.613485509E0
1.818452583E0,2.401007080E-1,7.401807861E0,-6.417604523E0,9.799492628E0
1.828453583E0,-2.273771667E-1,7.676336975E0,-6.671626282E0,1.017292716E1
1.838454583E0,-8.828640747E-1,8.074059906E0,-6.715335388E0,1.053876756E1
1.848455583E0,-1.597028961E0,8.343349915E0,-6.657705231E0,1.079291565E1
1.858456583E0,-2.238145752E0,8.464597778E0,-6.609355774E0,1.097006361E1
1.868457583E0,-2.816992035E0,8.375532990E0,-6.532864838E0,1.098923655E1
1.878458583E0,-3.258573761E0,8.135132904E0,-6.347101135E0,1.082055374E1
1.888459583E0,-3.551514587E0,7.822433167E0,-6.025270386E0,1.049321684E1
1.898460583E0,-3.734434204E0,7.498357086E0,-5.588329010E0,1.006979538E1
1.908461583E0,-3.776047668E0,7.191794586E0,-5.123994598E0,9.603945336E0
1.918462583E0,-3.659889221E0,6.894512787E0,-4.788093109E0,9.157233824E0
1.928463583E0,-3.602558441E0,6.661896515E0,-4.530329132E0,8.825144449E0
1.938464583E0,-3.892056427E0,6.565796356E0,-4.462819519E0,8.841636901E0
1.948465583E0,-4.443359985E0,6.619235229E0,-4.475543060E0,9.142658731E0
1.958466583E0,-4.965474243E0,6.673572235E0,-4.508175201E0,9.461297188E0
1.968467583E0,-5.441484375E0,6.628216553E0,-4.451742554E0,9.662350575E0
1.978468583E0,-5.789510651E0,6.544839935E0,-4.207600250E0,9.698312390E0
1.988469583E0,-5.816903687E0,6.437213745E0,-3.978277130E0,9.544672767E0
1.998470583E0,-5.475763092E0,6.356531525E0,-3.850592651E0,9.231280422E0
2.008471583E0,-5.102140045E0,6.323600006E0,-3.848197632E0,8.990460227E0
2.018472583E0,-4.821922760E0,6.427633667E0,-3.906576233E0,8.934581777E0
2.028473583E0,-4.646188202E0,6.483467560E0,-3.954925690E0,8.903024970E0
2.038474583E0,-4.775668945E0,6.350244598E0,-3.841461639E0,8.825499865E0
2.048475583E0,-5.095553741E0,6.113437042E0,-3.785028992E0,8.812787577E0
2.058477583E0,-5.234913940E0,5.890849915E0,-3.814667358E0,8.755462508E0
2.068478583E0,-5.229375458E0,5.853278046E0,-3.944896545E0,8.784613840E0
2.078479583E0,-5.210514679E0,5.980064392E0,-4.123475189E0,8.939445228E0
2.088480583E0,-5.204826508E0,6.076463928E0,-4.354594574E0,9.109123270E0
2.098481583E0,-5.313949585E0,5.992787933E0,-4.491410065E0,9.182828092E0
2.108482583E0,-5.494324493E0,5.802832947E0,-4.666845245E0,9.254183724E0
2.118483583E0,-5.557792511E0,5.588478699E0,-4.822222137E0,9.239804008E0
2.128484583E0,-5.508095856E0,5.400020599E0,-4.966222687E0,9.174023665E0
2.138485583E0,-5.437293091E0,5.229674835E0,-5.162314911E0,9.141288218E0
2.148486583E0,-5.337001648E0,5.045857086E0,-5.332660675E0,9.076427172E0
2.158487583E0,-5.195845184E0,4.824317780E0,-5.514831848E0,8.982439509E0
2.168488583E0,-5.130131836E0,4.624483337E0,-5.700595551E0,8.955494873E0
2.178489583E0,-4.985233154E0,4.420607300E0,-5.846991119E0,8.864627666E0
2.188490583E0,-4.724325714E0,4.167932739E0,-6.071075134E0,8.749221112E0
2.198491583E0,-4.349804535E0,3.841012573E0,-6.271208954E0,8.544134762E0
2.208492583E0,-3.870501251E0,3.443289642E0,-6.308930511E0,8.163309849E0
2.218493583E0,-3.550766144E0,3.097808075E0,-6.242319031E0,7.821182900E0
2.228494583E0,-3.727847900E0,2.898722076E0,-6.030958557E0,7.659758532E0
2.238495583E0,-4.421655121E0,2.823877716E0,-5.699996796E0,7.746953132E0
2.248496583E0,-5.452261963E0,2.897823944E0,-5.358257446E0,8.175296140E0
2.258497583E0,-6.473737793E0,3.231180725E0,-5.317691803E0,8.979290395E0
2.268498583E0,-7.209757233E0,3.717519379E0,-5.521118774E0,9.812405526E0
2.278500583E0,-7.436835022E0,4.290827179E0,-5.575605469E0,1.023743568E1
2.288501583E0,-7.432793427E0,4.742288361E0,-5.601501617E0,1.044569468E1
2.298502583E0,-7.566016388E0,4.986580353E0,-5.564079437E0,1.063341749E1
2.308503583E0,-7.947872314E0,4.974006500E0,-5.497018890E0,1.086860762E1
2.318504583E0,-8.475824432E0,4.600982208E0,-5.695057068E0,1.120010322E1
2.328505583E0,-8.953032074E0,3.882626038E0,-6.065686340E0,1.149017489E1
2.338506583E0,-9.451794891E0,3.074456635E0,-6.415359192E0,1.182985815E1
2.348507583E0,-1.001163071E1,2.364333344E0,-6.396199036E0,1.211338861E1
2.358508583E0,-1.029259644E1,1.865420837E0,-5.974376221E0,1.204618228E1
2.368509583E0,-1.010773087E1,1.451082458E0,-5.762416992E0,1.172507199E1
2.378510583E0,-9.580676880E0,1.550326080E0,-5.943240967E0,1.138046544E1
2.388511583E0,-8.833730164E0,1.776655426E0,-6.040538635E0,1.084801365E1
2.398512583E0,-8.155789948E0,1.923649750E0,-6.407725067E0,1.054875720E1
2.408513583E0,-7.773335266E0,1.689087524E0,-6.180647278E0,1.007363681E1
2.418514583E0,-7.357949066E0,1.091230774E0,-7.101681976E0,1.028416676E1
2.428515583E0,-7.057523804E0,7.451504517E-1,-7.327262878E0,1.020062119E1
2.438516583E0,-6.739734650E0,1.302291870E-1,-6.951095123E0,9.682907941E0
2.448517583E0,-6.087840271E0,-6.896159363E-1,-6.867718506E0,9.203419298E0
2.458518583E0,-5.220843201E0,-1.430724792E0,-6.796167297E0,8.688617099E0
2.468519667E0,-4.756209412E0,-2.073937225E0,-6.622678070E0,8.413240066E0
2.478520667E0,-5.118905182E0,-2.663112030E0,-6.296356659E0,8.540460358E0
2.488521667E0,-6.185886383E0,-3.048859863E0,-6.330335999E0,9.361297488E0
2.498522667E0,-7.133415985E0,-3.078647919E0,-6.940317535E0,1.041785506E1
2.508523667E0,-7.262597351E0,-2.705923004E0,-7.745493164E0,1.095718960E1
2.518525667E0,-7.016509094E0,-1.953138428E0,-8.175698547E0,1.094934684E1
2.528526667E0,-7.121590576E0,-1.337468719E0,-8.131091309E0,1.089130482E1
2.538527667E0,-7.593110046E0,-1.063089294E0,-8.062683563E0,1.112620085E1
2.548528667E0,-8.264613647E0,-7.104226685E-1,-8.203091583E0,1.166615835E1
2.558529667E0,-9.060658264E0,-2.998265076E-1,-8.169112244E0,1.220327083E1
2.568530667E0,-9.799521790E0,-2.570155334E-1,-7.897277527E0,1.258823564E1
2.578531667E0,-1.038705002E1,-4.113446045E-1,-7.585475922E0,1.286854527E1
2.588532667E0,-1.053389465E1,-5.914201355E-1,-7.626191254E0,1.301812227E1
2.598533667E0,-9.901609497E0,-8.677455139E-1,-7.691006470E0,1.256767415E1
2.608534667E0,-8.960067444E0,-1.266665955E0,-7.332651672E0,1.164710401E1
2.618535667E0,-8.330925751E0,-1.806144104E0,-6.833739166E0,1.092549639E1
2.628536667E0,-8.192313995E0,-2.276915131E0,-6.291566620E0,1.057743644E1
2.638537667E0,-8.468190308E0,-2.571951599E0,-5.735622711E0,1.054621022E1
2.648538667E0,-8.890761566E0,-2.781366119E0,-5.238805847E0,1.068769037E1
2.658539667E0,-9.267378387E0,-2.951711884E0,-5.244793396E0,1.105010240E1
2.668540667E0,-9.210945740E0,-2.977458344E0,-5.654491425E0,1.121071152E1
2.678541667E0,-8.292156372E0,-2.963986359E0,-5.886059875E0,1.059201460E1
2.688542667E0,-6.897656250E0,-3.071612549E0,-5.945186920E0,9.610292030E0
2.698543667E0,-5.815406799E0,-3.171604614E0,-5.811514893E0,8.812022323E0
2.708544667E0,-5.529201965E0,-3.225043488E0,-5.493875427E0,8.435380672E0
2.718545667E0,-6.169420624E0,-3.241808624E0,-4.978197784E0,8.564667371E0
2.728546667E0,-7.389683075E0,-3.445534973E0,-4.441863098E0,9.284894990E0
2.738548667E0,-8.747958527E0,-3.960613861E0,-4.193529510E0,1.047849848E1
2.748549667E0,-9.801168365E0,-4.423002319E0,-4.282444611E0,1.157433293E1
2.758550667E0,-9.466165009E0,-4.752467194E0,-4.560715942E0,1.153231782E1
2.768551667E0,-7.794591064E0,-4.644691315E0,-4.910688171E0,1.031715395E1
2.778552667E0,-6.403683472E0,-4.259392548E0,-4.927453308E0,9.133968633E0
2.788553667E0,-6.147416382E0,-3.947740631E0,-4.692591705E0,8.683075560E0
2.798554667E0,-7.291786652E0,-3.776945801E0,-4.538112946E0,9.382427259E0
2.808555667E0,-9.072932739E0,-3.919599152E0,-3.805686035E0,1.059077958E1
2.818556667E0,-1.058628571E1,-4.434378662E0,-3.417543182E0,1.197550669E1
2.828557667E0,-1.163141235E1,-4.946763153E0,-3.576362915E0,1.313585135E1
2.838558667E0,-1.152947433E1,-5.236859894E0,-3.674109650E0,1.318531614E1
2.848559667E0,-1.010114456E1,-5.302273865E0,-3.645219727E0,1.197642920E1
2.858560667E0,-8.211474152E0,-5.226381683E0,-3.567830658E0,1.036690836E1
2.868561667E0,-6.709048462E0,-5.079686737E0,-3.548670502E0,9.132776738E0
2.878562667E0,-6.140381012E0,-4.801265717E0,-3.547772369E0,8.564059799E0
2.888563667E0,-6.583010559E0,-4.436474304E0,-3.604953461E0,8.718602051E0
2.898564667E0,-7.652985535E0,-4.354594574E0,-3.457809448E0,9.459763616E0
2.908565667E0,-8.706644440E0,-4.727768555E0,-3.228186951E0,1.042010767E1
2.918566667E0,-9.476044464E0,-5.435047760E0,-3.078498230E0,1.134955128E1
2.928567667E0,-9.769134979E0,-6.078709259E0,-3.294049988E0,1.196818574E1
2.938568667E0,-8.864566040E0,-6.145021362E0,-3.608995056E0,1.137394672E1
2.948569667E0,-7.279961243E0,-5.685776367E0,-3.941453705E0,1.004295504E1
2.958571667E0,-6.264772339E0,-5.036576385E0,-3.998335419E0,8.977814894E0
2.968572667E0,-6.127956848E0,-4.436324615E0,-3.806584167E0,8.468938201E0
2.978573667E0,-6.749314728E0,-4.252506866E0,-3.567680969E0,8.738730540E0
2.988574667E0,-7.711813202E0,-4.690046997E0,-3.364703064E0,9.632747812E0
2.998575667E0,-8.656648407E0,-5.647905121E0,-3.104095001E0,1.079221014E1
3.008576667E0,-9.468260651E0,-6.550378418E0,-2.980452118E0,1.189279244E1
3.018577667E0,-9.627379761E0,-7.165599060E0,-2.807861023E0,1.232543445E1
3.028578667E0,-8.610843658E0,-7.323520660E0,-2.697390747E0,1.162138117E1
3.038579667E0,-7.202871552E0,-6.707252197E0,-2.721490631E0,1.021151810E1
3.048580667E0,-6.500681763E0,-5.833668823E0,-2.573897552E0,9.105795074E0
3.058581667E0,-6.574777679E0,-4.848417664E0,-2.456990662E0,8.530630603E0
3.068582667E0,-6.904242554E0,-4.315076752E0,-2.469564514E0,8.508066849E0
3.078583667E0,-7.423213348E0,-4.757556610E0,-2.379601593E0,9.132411787E0
3.088584667E0,-8.194110260E0,-5.924529877E0,-2.131268005E0,1.033372152E1
3.098585667E0,-8.877738647E0,-6.817572784E0,-2.058519287E0,1.138117058E1
3.108586667E0,-9.241182861E0,-7.343279572E0,-2.089804230E0,1.198709712E1
3.118587667E0,-8.991202698E0,-7.265142059E0,-2.067500610E0,1.174302235E1
3.128588667E0,-8.206983490E0,-6.635850677E0,-1.945504303E0,1.073191871E1
3.138589667E0,-7.588619385E0,-5.901926880E0,-1.919159088E0,9.803216649E0
3.148590667E0,-7.388186188E0,-5.383405151E0,-2.170636139E0,9.395637680E0
3.158591667E0,-7.433841248E0,-4.896767120E0,-2.508034515E0,9.248273409E0
3.168592667E0,-7.411687317E0,-4.903203735E0,-2.732268219E0,9.297300973E0
3.178594667E0,-7.215146027E0,-5.117258606E0,-2.888692932E0,9.305332594E0
3.188595667E0,-6.964716797E0,-5.346432037E0,-3.150348816E0,9.328253494E0
3.198596667E0,-6.741231537E0,-5.564827881E0,-3.353626099E0,9.362602202E0
3.208597667E0,-6.467301178E0,-5.766608276E0,-3.534150696E0,9.357883130E0
3.218598667E0,-6.185587006E0,-5.952821045E0,-3.622467041E0,9.317716054E0
3.228599667E0,-6.017785950E0,-6.157894592E0,-3.598965912E0,9.331986347E0
3.238600667E0,-6.007457428E0,-6.407725067E0,-3.503464508E0,9.456360232E0
3.248601667E0,-6.162085876E0,-6.547684021E0,-3.440295868E0,9.626998704E0
3.258602667E0,-6.541247406E0,-6.563401337E0,-3.390599213E0,9.867234555E0
3.268603667E0,-7.130272522E0,-6.558162231E0,-3.319347382E0,1.024052465E1
3.278604667E0,-7.673792267E0,-6.557563477E0,-3.247796173E0,1.060362704E1
3.288605667E0,-7.961044922E0,-6.444997559E0,-3.149600372E0,1.071616593E1
3.298606667E0,-8.042176208E0,-6.409371643E0,-3.090772705E0,1.073822699E1
3.308607667E0,-7.797734528E0,-6.504423981E0,-2.993175659E0,1.058637311E1
3.318608667E0,-7.446265411E0,-6.660998383E0,-2.986739044E0,1.042767367E1
3.328609667E0,-7.159910889E0,-6.733896790E0,-3.130140839E0,1.031539973E1
3.338610667E0,-7.093898163E0,-6.668482819E0,-3.231180725E0,1.025829338E1
3.348611667E0,-7.209308167E0,-6.492299194E0,-3.295097809E0,1.024605986E1
3.358612667E0,-7.443720703E0,-6.302493896E0,-3.362008667E0,1.031666174E1
3.368613667E0,-7.633526001E0,-6.243965607E0,-3.467239838E0,1.045368728E1
3.378614667E0,-7.465425568E0,-6.361471252E0,-3.621568909E0,1.045546062E1
3.388615667E0,-6.949598236E0,-6.605463867E0,-3.809428253E0,1.031701566E1
3.398617667E0,-6.346203003E0,-6.849905548E0,-3.960464172E0,1.014301607E1
3.408618667E0,-5.892346802E0,-6.974446564E0,-4.145928497E0,1.002753104E1
3.418619667E0,-5.615123291E0,-6.932982788E0,-4.520599365E0,1.000158380E1
3.428620667E0,-5.323080597E0,-6.886878662E0,-4.811444550E0,9.945566017E0
3.438621667E0,-4.827910309E0,-6.995552673E0,-5.115013275E0,9.920173182E0
3.448622667E0,-4.314028931E0,-7.282505951E0,-5.464835815E0,1.007522551E1
3.458623667E0,-4.344864807E0,-7.747289429E0,-5.583239594E0,1.049146835E1
3.468624792E0,-5.035079498E0,-8.162975006E0,-5.275329895E0,1.094601718E1
3.478625792E0,-5.983656921E0,-8.205486603E0,-4.741240540E0,1.120774386E1
3.488626792E0,-6.951244812E0,-7.777676239E0,-4.362228699E0,1.130668348E1
3.498627792E0,-7.584577789E0,-7.068900146E0,-3.955973511E0,1.109706700E1
3.508628792E0,-7.643255768E0,-6.631659393E0,-3.703298950E0,1.077555976E1
3.518629792E0,-7.313042450E0,-6.408623199E0,-3.623664551E0,1.037699311E1
3.528630792E0,-7.013365631E0,-6.371201019E0,-3.676804047E0,1.016358145E1
3.538631792E0,-6.907386017E0,-6.647676086E0,-3.630550232E0,1.025107184E1
3.548632792E0,-7.057523804E0,-7.037016449E0,-3.521576843E0,1.057022924E1
3.558633792E0,-7.358248444E0,-7.447762299E0,-3.541784821E0,1.105247588E1
3.568634792E0,-7.687114563E0,-7.710765381E0,-3.761527863E0,1.151940645E1
3.578635792E0,-7.923323364E0,-7.725883942E0,-3.966751099E0,1.175599635E1
3.588636792E0,-7.755971375E0,-7.642207947E0,-4.015100555E0,1.160514829E1
3.598637792E0,-6.990313568E0,-7.603588257E0,-4.004622345E0,1.107772713E1
3.608639792E0,-5.964796143E0,-7.598349152E0,-4.029320984E0,1.046657205E1
3.618640792E0,-5.316344604E0,-7.539820862E0,-4.261488190E0,1.016231766E1
3.628641792E0,-5.283862152E0,-7.288343811E0,-4.489913177E0,1.005974528E1
3.638642792E0,-5.579197998E0,-7.022496643E0,-4.570595398E0,1.006644186E1
3.648643792E0,-5.780379639E0,-6.632108459E0,-4.774471436E0,1.000965678E1
3.658644792E0,-5.809568939E0,-6.382427673E0,-5.075046387E0,1.001212116E1
3.668645792E0,-5.762416992E0,-6.270460510E0,-5.454806671E0,1.011331006E1
3.678646792E0,-5.530399475E0,-6.103258209E0,-5.757626953E0,1.004914659E1
3.688647792E0,-5.205425262E0,-6.137536926E0,-5.738915863E0,9.884379949E0
3.698648792E0,-4.863985291E0,-5.971681824E0,-5.641767883E0,9.547192339E0
3.708649792E0,-4.608766022E0,-5.636528778E0,-5.676795044E0,9.232398544E0
3.718650792E0,-4.577780457E0,-5.283263397E0,-5.622158661E0,8.970931615E0
3.728651792E0,-4.635859680E0,-4.666396179E0,-5.595364380E0,8.635655784E0
3.738652792E0,-4.771627350E0,-4.172423401E0,-5.467979279E0,8.371161329E0
3.748653792E0,-5.066514130E0,-4.095782776E0,-5.066963196E0,8.253430681E0
3.758654792E0,-5.551505585E0,-4.023034058E0,-5.211113434E0,8.611603829E0
3.768655792E0,-6.065087585E0,-4.114044800E0,-5.768853607E0,9.326860349E0
3.778656792E0,-6.147266693E0,-4.619693298E0,-5.766907654E0,9.611850907E0
3.788657792E0,-5.642965393E0,-5.015021210E0,-5.285808105E0,9.215924451E0
3.798658792E0,-4.988376617E0,-5.448070679E0,-4.819976807E0,8.820292048E0
3.808660792E0,-4.733905792E0,-5.475463715E0,-4.928650818E0,8.756835377E0
3.818661792E0,-4.988825684E0,-5.399122467E0,-5.135820007E0,8.967471899E0
3.828662792E0,-5.432652740E0,-5.707481232E0,-5.085374908E0,9.378171238E0
3.838663792E0,-5.574258270E0,-6.030060425E0,-4.966522064E0,9.596891445E0
3.848664792E0,-5.295088806E0,-6.102509766E0,-4.981640625E0,9.491856205E0
3.858665792E0,-5.066813507E0,-6.589297485E0,-4.276307373E0,9.347633134E0
3.868666792E0,-5.448370056E0,-7.995024261E0,-3.121309204E0,1.016600808E1
3.878667792E0,-6.387068024E0,-9.782606964E0,-2.865042114E0,1.202923536E1
3.888668792E0,-7.364235992E0,-1.034693344E1,-3.197201385E0,1.309630101E1
3.898669792E0,-7.972870331E0,-9.899364166E0,-3.402424622E0,1.315828885E1
3.908670792E0,-8.162525940E0,-8.840316467E0,-3.395838318E0,1.250238949E1
3.918671792E0,-8.245603180E0,-7.434140625E0,-3.363505554E0,1.160041328E1
3.928672792E0,-8.550369415E0,-6.110892334E0,-3.332519989E0,1.102531232E1
3.938673792E0,-9.031918030E0,-5.094056854E0,-3.340603180E0,1.089424564E1
3.948674792E0,-9.550739136E0,-4.356989594E0,-3.237767029E0,1.098558654E1
3.958675792E0,-1.006941055E1,-3.823648682E0,-3.020868073E0,1.118655273E1
3.968676792E0,-1.042327469E1,-3.455414429E0,-2.905158691E0,1.135889480E1
3.978677792E0,-1.043839325E1,-3.170257416E0,-2.981799316E0,1.130936395E1
3.988678792E0,-1.003647903E1,-3.029100952E0,-3.437302094E0,1.103274262E1
3.998679792E0,-9.414372711E0,-3.023263092E0,-4.175117798E0,1.073322607E1
4.008681792E0,-8.649014282E0,-3.131488037E0,-4.804409180E0,1.037757259E1
4.018682792E0,-7.787256317E0,-3.356769562E0,-5.067262573E0,9.878583543E0
4.028683792E0,-7.062762909E0,-3.598067780E0,-5.374723206E0,9.576865938E0
4.038684792E0,-6.705904999E0,-3.777843933E0,-5.901328125E0,9.698811282E0
4.048685792E0,-6.615642700E0,-3.951632538E0,-6.246660004E0,9.919823045E0
4.058686792E0,-6.545289001E0,-4.142335968E0,-6.353088684E0,1.001805826E1
4.068687792E0,-6.435267792E0,-4.303850098E0,-6.244414673E0,9.946281306E0
4.078688792E0,-6.371650085E0,-4.323159943E0,-6.036047974E0,9.783737110E0
4.088689792E0,-6.336473236E0,-4.190984802E0,-5.880820770E0,9.607252449E0
4.098690792E0,-6.393654327E0,-3.941304016E0,-5.715115356E0,9.437967819E0
4.108691792E0,-6.566395111E0,-3.702400818E0,-5.550906830E0,9.361510733E0
4.118692792E0,-6.710245972E0,-3.583847351E0,-5.548960876E0,9.416067632E0
4.128693792E0,-6.822961578E0,-3.572920074E0,-5.672154694E0,9.565139906E0
4.138694792E0,-6.831194458E0,-3.644471283E0,-5.780828705E0,9.662575701E0
4.148695792E0,-6.785539398E0,-3.863914948E0,-5.768853607E0,9.708401289E0
4.158696792E0,-6.785240021E0,-4.103566589E0,-5.687572632E0,9.758443694E0
4.168697792E0,-6.940167847E0,-4.207600250E0,-5.576802979E0,9.847363153E0
4.178698792E0,-7.178472290E0,-4.165537720E0,-5.511838074E0,9.963058158E0
4.188699792E0,-7.434589691E0,-3.946094055E0,-5.349575500E0,9.973100832E0
4.198700792E0,-7.629334717E0,-3.670367432E0,-5.212460632E0,9.942237733E0
4.208702792E0,-7.677085419E0,-3.419339447E0,-5.174739075E0,9.869521127E0
4.218703792E0,-7.663014679E0,-3.248394928E0,-5.241799622E0,9.836174401E0
4.228704792E0,-7.566465454E0,-3.204236755E0,-5.349425812E0,9.804840089E0
4.238705792E0,-7.415728912E0,-3.275488586E0,-5.442382507E0,9.764291482E0
4.248706792E0,-7.389234009E0,-3.326831818E0,-5.507197723E0,9.797847516E0
4.258707792E0,-7.513924713E0,-3.310216370E0,-5.602250061E0,9.939909595E0
4.268708792E0,-7.627388763E0,-3.236419830E0,-5.602699127E0,1.000208529E1
4.278709792E0,-7.718100128E0,-3.134930878E0,-5.577551422E0,1.002526514E1
4.288710792E0,-7.774233398E0,-3.081042938E0,-5.529351654E0,1.002523118E1
4.298711792E0,-7.789501648E0,-3.067720642E0,-5.480104065E0,1.000593756E1
4.308712792E0,-7.712262268E0,-3.067421265E0,-5.710325317E0,1.007451625E1
4.318713792E0,-7.640261993E0,-3.035687256E0,-6.197412415E0,1.029548061E1
4.328714792E0,-7.647147675E0,-3.044518890E0,-6.471043396E0,1.047006998E1
4.338715792E0,-7.644752655E0,-3.158731384E0,-6.320456543E0,1.040999510E1
4.348716792E0,-7.664062500E0,-3.189267883E0,-6.269263000E0,1.040254499E1
4.358717792E0,-7.842341766E0,-2.938688965E0,-6.371650085E0,1.052312416E1
4.368718792E0,-8.167765045E0,-2.469115448E0,-6.694678345E0,1.084562746E1
4.378719792E0,-8.432414703E0,-2.024989014E0,-7.094945984E0,1.120466228E1
4.388720792E0,-8.591384125E0,-1.783990173E0,-7.380402374E0,1.146581185E1
4.398722792E0,-8.756640472E0,-1.797013092E0,-7.420369263E0,1.161765417E1
4.408723792E0,-8.920998688E0,-1.961221619E0,-7.363487549E0,1.173250002E1
4.418724792E0,-9.043294373E0,-2.084116058E0,-7.545209656E0,1.196055607E1
4.428725792E0,-9.043743439E0,-2.098486176E0,-7.815996552E0,1.213601012E1
4.438726792E0,-8.946296082E0,-2.183060303E0,-8.050858154E0,1.223185525E1
4.448727792E0,-8.999884644E0,-2.237846375E0,-8.639284515E0,1.267450658E1
4.458728792E0,-9.253607025E0,-2.227667542E0,-9.181457062E0,1.322463230E1
4.468729792E0,-9.794132996E0,-2.132166138E0,-9.459578705E0,1.378240918E1
4.478730708E0,-1.042237656E1,-1.910177765E0,-9.395511932E0,1.416158030E1
4.488731708E0,-1.096095657E1,-1.660946045E0,-9.124575348E0,1.435824453E1
4.498732708E0,-1.128054199E1,-1.417851562E0,-8.798703003E0,1.437630360E1
4.508733708E0,-1.137260056E1,-1.163380737E0,-8.556656342E0,1.427956112E1
4.518734708E0,-1.124371857E1,-8.819659424E-1,-8.552165680E0,1.415410220E1
4.528735708E0,-1.098760117E1,-6.018983459E-1,-8.506809998E0,1.390882732E1
4.538736708E0,-1.067026108E1,-4.993615723E-1,-8.178392944E0,1.345325034E1
4.548737708E0,-1.051069290E1,-5.876779175E-1,-7.826325073E0,1.311759867E1
4.558738708E0,-1.056817337E1,-7.213499451E-1,-7.478897552E0,1.296690182E1
4.568739708E0,-1.065798660E1,-9.276210022E-1,-7.018005981E0,1.279474764E1
4.578740708E0,-1.069795349E1,-1.158590698E0,-6.526877289E0,1.258525599E1
4.588742708E0,-1.058868073E1,-1.441203003E0,-6.121071167E0,1.231522382E1
4.598743708E0,-1.024304947E1,-1.750459900E0,-5.642965393E0,1.182485648E1
4.608744708E0,-9.666448517E0,-2.091899872E0,-5.061873779E0,1.111030324E1
4.618745708E0,-8.939709778E0,-2.354154510E0,-4.931794281E0,1.047774065E1
4.628746708E0,-8.472531281E0,-2.225871277E0,-5.353916473E0,1.026658224E1
4.638747708E0,-8.443641357E0,-1.828298035E0,-5.804479523E0,1.040815717E1
4.648748708E0,-8.392597504E0,-1.495240631E0,-5.669011230E0,1.023763282E1
4.658749708E0,-8.143814850E0,-1.333277435E0,-5.011428680E0,9.654727673E0
4.668750708E0,-7.851323090E0,-1.235081635E0,-4.565056915E0,9.165612120E0
4.678751708E0,-7.571704559E0,-1.099763031E0,-4.273163910E0,8.763567679E0
4.688752708E0,-7.280260620E0,-7.884104919E-1,-3.999233551E0,8.343719482E0
4.698753708E0,-7.048841858E0,-3.121009827E-1,-3.707939301E0,7.970720947E0
4.708754708E0,-7.025939484E0,2.086660767E-1,-3.690276031E0,7.938860394E0
4.718755708E0,-7.156318359E0,7.182064819E-1,-4.109703827E0,8.283621102E0
4.728756708E0,-7.175777893E0,1.110091553E0,-4.758903809E0,8.681662115E0
4.738757708E0,-6.950047302E0,1.397344208E0,-5.213059387E0,8.799529335E0
4.748758708E0,-6.575226746E0,1.651964722E0,-5.342839508E0,8.631832262E0
4.758759708E0,-6.196214905E0,1.844913483E0,-5.209317169E0,8.302636345E0
4.768761708E0,-5.969137115E0,2.037562866E0,-5.031636658E0,8.068434036E0
4.778762708E0,-5.883215790E0,2.220931549E0,-4.671335907E0,7.833654583E0
4.788763708E0,-5.963598633E0,2.501897278E0,-4.404141541E0,7.824350539E0
4.798764708E0,-6.202651520E0,2.839595032E0,-4.269870758E0,8.047855746E0
4.808765708E0,-6.539750519E0,3.209625549E0,-4.291276245E0,8.454885264E0
4.818766708E0,-6.910529480E0,3.634591827E0,-4.273612976E0,8.901092254E0
4.828767708E0,-7.283104706E0,3.966302032E0,-4.267326050E0,9.326587671E0
4.838768708E0,-7.526797943E0,4.146227875E0,-4.367767181E0,9.639568612E0
4.848769708E0,-7.428901520E0,4.153862000E0,-4.356989594E0,9.561720850E0
4.858770708E0,-7.077432404E0,3.962410126E0,-4.097429352E0,9.087335733E0
4.868771708E0,-6.746171265E0,3.734284515E0,-3.732488251E0,8.566631550E0
4.878772708E0,-6.564000092E0,3.544179840E0,-3.432661743E0,8.211606090E0
4.888773708E0,-6.421496429E0,3.528163147E0,-3.178490295E0,7.986635846E0
4.898774708E0,-6.337071991E0,3.679498444E0,-2.991828461E0,7.915063345E0
4.908775708E0,-6.166726227E0,3.944746857E0,-3.017425232E0,7.917979234E0
4.918776708E0,-5.975723419E0,4.276007996E0,-3.015329590E0,7.942652409E0
4.928777708E0,-5.790109406E0,4.595593414E0,-2.999013519E0,7.977401071E0
4.938778708E0,-5.758076019E0,4.863087158E0,-3.073109436E0,8.139352416E0
4.948780708E0,-5.789660339E0,5.097200317E0,-3.027903442E0,8.286725359E0
4.958781708E0,-5.756130066E0,5.280419312E0,-2.901566162E0,8.332763505E0
4.968782708E0,-5.788612518E0,5.458399200E0,-2.642005920E0,8.383457044E0
4.978783708E0,-5.915997620E0,5.687572632E0,-2.476001129E0,8.571936296E0
4.988784708E0,-6.109994202E0,5.834117889E0,-2.317181396E0,8.760039402E0
4.998785708E0,-6.264622650E0,6.016738129E0,-2.241289215E0,8.970507901E0
5.008786708E0,-6.431824951E0,6.202202454E0,-2.286644897E0,9.223038131E0
5.018787708E0,-6.533313904E0,6.293662262E0,-2.224224701E0,9.340318557E0
5.028788708E0,-6.460415497E0,6.360273743E0,-2.165696411E0,9.320959791E0
5.038789708E0,-6.370153198E0,6.327342224E0,-2.165397034E0,9.235965337E0
5.048790708E0,-6.209387512E0,6.244564362E0,-2.227368164E0,9.083625173E0
5.058791708E0,-6.016738129E0,6.145320740E0,-2.466421051E0,8.947029535E0
5.068792708E0,-5.783373413E0,6.036946106E0,-2.717299347E0,8.790667896E0
5.078793708E0,-5.529800720E0,5.952671356E0,-2.810854797E0,8.597319174E0
5.088794708E0,-5.274431763E0,5.992189178E0,-2.788251801E0,8.455785574E0
5.098795708E0,-5.061125336E0,6.174959106E0,-2.780917053E0,8.454502309E0
5.108797708E0,-4.842879181E0,6.427334290E0,-2.665956116E0,8.477701743E0
5.118798708E0,-4.639302521E0,6.704557800E0,-2.628683624E0,8.566457890E0
5.128799708E0,-4.508474579E0,7.011569366E0,-2.615960083E0,8.736801198E0
5.138800708E0,-4.406536560E0,7.301516418E0,-2.616708527E0,8.920586863E0
5.148801708E0,-4.356540527E0,7.538473663E0,-2.737806702E0,9.127081465E0
5.158802708E0,-4.355193329E0,7.673492889E0,-2.802921295E0,9.257784284E0
5.168803708E0,-4.348307648E0,7.828570404E0,-2.825823669E0,9.390397935E0
5.178804708E0,-4.418361969E0,7.976013794E0,-2.876268768E0,9.560943497E0
5.188805708E0,-4.545447693E0,8.068671112E0,-2.858605499E0,9.692067563E0
5.198806708E0,-4.711452484E0,8.039930878E0,-2.828817444E0,9.738607763E0
5.208807708E0,-4.913831635E0,7.960895233E0,-2.849175110E0,9.779539511E0
5.218808708E0,-5.023104401E0,7.845485229E0,-2.863694916E0,9.745971726E0
5.228809708E0,-5.060077515E0,7.770341492E0,-2.813249817E0,9.690044679E0
5.238810708E0,-5.079986115E0,7.848329315E0,-2.696342926E0,9.729994714E0
5.248811708E0,-5.104085999E0,7.962541809E0,-2.594255219E0,9.807340418E0
5.258812708E0,-5.205275574E0,8.171058197E0,-2.500250702E0,1.000561539E1
5.268813708E0,-5.388344879E0,8.315507812E0,-2.390528870E0,1.019296615E1
5.278815708E0,-5.536387024E0,8.441096649E0,-2.326312408E0,1.035931578E1
5.288816708E0,-5.622158661E0,8.557554474E0,-2.357896729E0,1.050714441E1
5.298817708E0,-5.613327026E0,8.539891205E0,-2.423909454E0,1.050307189E1
5.308818708E0,-5.528154144E0,8.409961395E0,-2.420017548E0,1.035105907E1
5.318819708E0,-5.346432037E0,8.289461975E0,-2.439926147E0,1.016133628E1
5.328820708E0,-5.231920166E0,8.261021118E0,-2.446213074E0,1.007975282E1
5.338821708E0,-5.186564484E0,8.284372559E0,-2.431992645E0,1.007203396E1
5.348822708E0,-5.071603546E0,8.364306335E0,-2.392474823E0,1.007009031E1
5.358823708E0,-4.899760895E0,8.425978088E0,-2.335144043E0,1.002285694E1
5.368824708E0,-4.807402954E0,8.444389801E0,-2.184856567E0,9.959540175E0
5.378825708E0,-4.750221863E0,8.432414703E0,-2.124681702E0,9.908809101E0
5.388826708E0,-4.692142639E0,8.491541748E0,-2.017504578E0,9.909228453E0
5.398827708E0,-4.671335907E0,8.543034668E0,-1.918710022E0,9.924024821E0
5.408828708E0,-4.655019836E0,8.606951752E0,-1.962718506E0,9.980034673E0
5.418829708E0,-4.674778748E0,8.619375916E0,-1.877994690E0,9.983689777E0
5.428830708E0,-4.650678864E0,8.540040894E0,-1.842518463E0,9.897271677E0
5.438831708E0,-4.397854614E0,8.408015442E0,-2.097588043E0,9.717804509E0
5.448833708E0,-4.029620361E0,8.345445557E0,-2.173929291E0,9.518942712E0
5.458834708E0,-3.693569183E0,8.392896881E0,-2.367027740E0,9.470268829E0
5.468835708E0,-3.583847351E0,8.312813416E0,-2.463726654E0,9.381725734E0
5.478836333E0,-3.521726532E0,8.314160614E0,-2.552492065E0,9.383125291E0
5.488837333E0,-3.510799255E0,8.377329254E0,-2.522704010E0,9.427056400E0
5.498838333E0,-3.318598938E0,8.541986847E0,-2.582878876E0,9.521024183E0
5.508839333E0,-3.146456909E0,8.595725098E0,-2.089804230E0,9.389034176E0
5.518840333E0,-3.075654144E0,8.338559875E0,-1.841919708E0,9.076557576E0
5.528841333E0,-2.963537292E0,8.063731384E0,-1.423240356E0,8.708153090E0
5.538842333E0,-2.735112305E0,8.071814575E0,-1.037791901E0,8.585571727E0
5.548843333E0,-2.408192139E0,8.284522247E0,-1.109343109E0,8.698467703E0
5.558844333E0,-1.954785004E0,8.561745758E0,-1.161434784E0,8.858532926E0
5.568845333E0,-1.666185150E0,8.824449463E0,-1.080303497E0,9.045116745E0
5.578846333E0,-1.651216278E0,8.914711761E0,-1.145867157E0,9.138468828E0
5.588847333E0,-1.733395386E0,8.873846741E0,-1.171164551E0,9.117096136E0
5.598848333E0,-1.836530914E0,8.803642731E0,-1.077010345E0,9.057423608E0
5.608850333E0,-1.928290100E0,8.744815063E0,-1.220711517E0,9.037711536E0
5.618851333E0,-1.883533173E0,8.777447205E0,-1.372046814E0,9.081508085E0
5.628852333E0,-1.698368225E0,8.777447205E0,-1.383423157E0,9.046650965E0
5.638853333E0,-1.542242889E0,8.695717163E0,-1.392404480E0,8.940514546E0
5.648854333E0,-1.469045105E0,8.676557007E0,-1.558558960E0,8.936992841E0
5.658855333E0,-1.442101135E0,8.786129150E0,-1.692680054E0,9.063160977E0
5.668856333E0,-1.538051605E0,8.941056976E0,-1.744622040E0,9.238604259E0
5.678857333E0,-1.628613281E0,9.103020172E0,-1.804347839E0,9.421943993E0
5.688858333E0,-1.642234955E0,9.369166718E0,-1.855092316E0,9.691211902E0
5.698859333E0,-1.586700439E0,9.588610382E0,-1.866618347E0,9.896632326E0
5.708860333E0,-1.497186584E0,9.712103577E0,-1.974543915E0,1.002324036E1
5.718861333E0,-1.419198761E0,9.756261749E0,-2.156415710E0,1.009202146E1
5.728862333E0,-1.443448334E0,9.737850037E0,-2.242786102E0,1.009650216E1
5.738863333E0,-1.492546234E0,9.604776764E0,-2.136956177E0,9.952186325E0
5.748864333E0,-1.503922577E0,9.379794617E0,-1.931882629E0,9.694044598E0
5.758865333E0,-1.467398529E0,9.259444885E0,-1.874252472E0,9.560512557E0
5.768867333E0,-1.456920319E0,9.264534302E0,-1.740879822E0,9.538599226E0
5.778868333E0,-1.558409271E0,9.361981659E0,-1.629062347E0,9.629599377E0
5.788869333E0,-1.721420288E0,9.528435516E0,-1.562001801E0,9.807865253E0
5.798870333E0,-1.892664185E0,9.656119995E0,-1.478625183E0,9.950334844E0
5.808871333E0,-1.977837067E0,9.588909760E0,-1.166973267E0,9.860063714E0
5.818872333E0,-1.885030060E0,9.352700958E0,-8.696914673E-1,9.580329681E0
5.828873333E0,-1.628164215E0,9.246871033E0,-7.488926697E-1,9.418937458E0
5.838874333E0,-1.406924286E0,9.304650879E0,-9.310638428E-1,9.456365253E0
5.848875333E0,-1.379830627E0,9.533375244E0,-1.409319305E0,9.735263582E0
5.858876333E0,-1.460812225E0,9.695338440E0,-1.675166473E0,9.946845859E0
5.868877333E0,-1.561552734E0,9.551038513E0,-1.594334564E0,9.808296811E0
5.878878333E0,-1.505569153E0,9.229507141E0,-1.445094910E0,9.462496491E0
5.888879333E0,-1.184636536E0,9.035360870E0,-1.241518250E0,9.196873237E0
5.898880333E0,-7.301815796E-1,8.960217133E0,-1.038690033E0,9.049725586E0
5.908881333E0,-2.966830444E-1,8.956774292E0,-1.019978943E0,9.019544533E0
5.918882333E0,-1.362167358E-1,9.086704102E0,-1.207688599E0,9.167620094E0
5.928884333E0,-3.222798157E-1,9.325307922E0,-1.376088409E0,9.431800010E0
5.938885333E0,-6.203100586E-1,9.469907227E0,-1.482068024E0,9.605230506E0
5.948886333E0,-7.743397522E-1,9.400601349E0,-1.513802032E0,9.553141073E0
5.958887333E0,-6.601272583E-1,9.148375854E0,-1.453327789E0,9.286587664E0
5.968888333E0,-3.996688843E-1,8.843459930E0,-1.322200470E0,8.950683373E0
5.978889333E0,-1.579216003E-1,8.587492218E0,-1.242715759E0,8.678381432E0
5.988890333E0,-7.619155884E-2,8.509354706E0,-1.221609650E0,8.596932755E0
5.998891333E0,-1.904040527E-1,8.629105682E0,-1.104104004E0,8.701538038E0
6.008892333E0,-4.903802490E-1,8.851992188E0,-1.260678406E0,8.954750053E0
6.018893333E0,-7.809260559E-1,9.116641846E0,-1.489552460E0,9.270478444E0
6.028894333E0,-8.982820129E-1,9.240584106E0,-1.536105652E0,9.410362680E0
6.038895333E0,-8.964857483E-1,9.164093170E0,-1.500030670E0,9.329221958E0
6.048896333E0,-7.599696350E-1,8.944948883E0,-1.525777130E0,9.105913475E0
6.058897333E0,-6.035449219E-1,8.692873077E0,-1.609453125E0,8.861187741E0
6.068898333E0,-4.559518433E-1,8.447383575E0,-1.681603088E0,8.625193928E0
6.078900333E0,-3.366499329E-1,8.223748627E0,-1.785487061E0,8.422074489E0
6.088901333E0,-2.980302429E-1,8.095166016E0,-1.893712006E0,8.319055235E0
6.098902333E0,-3.182382202E-1,8.044870605E0,-1.964514771E0,8.287372135E0
6.108903333E0,-3.480262756E-1,7.995922394E0,-2.100881195E0,8.274635884E0
6.118904333E0,-4.086502075E-1,7.899971924E0,-2.243384857E0,8.222489100E0
6.128905333E0,-5.312452698E-1,7.805069275E0,-2.321821747E0,8.160403430E0
6.138906333E0,-7.385641479E-1,7.758067017E0,-2.358345795E0,8.142166525E0
6.148907333E0,-9.481283569E-1,7.714357910E0,-2.335593109E0,8.115741526E0
6.158908333E0,-1.105900269E0,7.627089386E0,-2.253114624E0,8.029447890E0
6.168909333E0,-1.195414124E0,7.447612610E0,-2.093097382E0,7.827963028E0
6.178910333E0,-1.214424591E0,7.162006531E0,-1.906734924E0,7.510313090E0
6.188911333E0,-1.263073425E0,6.775510254E0,-1.896256714E0,7.148334296E0
6.198912333E0,-1.345252533E0,6.330335999E0,-1.944157104E0,6.757411123E0
6.208913333E0,-1.522783356E0,5.969436493E0,-2.135758667E0,6.520314891E0
6.218914333E0,-1.787582703E0,5.672903137E0,-2.459086304E0,6.436178010E0
6.228916333E0,-2.139201508E0,5.411546631E0,-2.690654755E0,6.410978321E0
6.238917333E0,-2.532433777E0,5.204377441E0,-2.811603241E0,6.434584538E0
6.248918333E0,-2.859803009E0,4.983137512E0,-2.807411957E0,6.394661415E0
6.258919333E0,-3.135529633E0,4.681215363E0,-2.727029114E0,6.259553589E0
6.268920333E0,-3.358715515E0,4.288282471E0,-2.523452454E0,6.003178220E0
6.278921333E0,-3.561843109E0,3.769012299E0,-2.208806763E0,5.636577628E0
6.288922333E0,-3.748355255E0,3.199746094E0,-1.921254730E0,5.289589958E0
6.298923333E0,-3.918850708E0,2.598147125E0,-1.742825775E0,5.014499082E0
6.308924333E0,-4.010460205E0,1.998943176E0,-1.714085541E0,4.797671739E0
6.318925333E0,-4.004472656E0,1.399439850E0,-1.871707764E0,4.636542149E0
6.328926333E0,-3.929029541E0,8.327183533E-1,-2.186203766E0,4.572765016E0
6.338927333E0,-3.908372498E0,2.939886475E-1,-2.561922455E0,4.682440770E0
6.348928333E0,-4.006119232E0,-2.100132751E-1,-2.943479004E0,4.975657296E0
6.358929333E0,-4.306843872E0,-6.017486572E-1,-3.553011475E0,5.615594013E0
6.368930333E0,-4.907993774E0,-8.165519714E-1,-4.120631104E0,6.460244632E0
6.378932333E0,-5.776188354E0,-9.210346985E-1,-4.188739471E0,7.194316867E0
6.388933333E0,-6.579268341E0,-1.100361786E0,-4.063150635E0,7.810682495E0
6.398934333E0,-7.196884003E0,-1.272952881E0,-4.049229584E0,8.355346109E0
6.408935333E0,-7.432643738E0,-1.502276001E0,-4.316573639E0,8.725470423E0
6.418936333E0,-7.306156769E0,-1.837578735E0,-4.977599030E0,9.029568895E0
6.428937333E0,-6.972949677E0,-2.230511627E0,-5.763614502E0,9.317535159E0
6.438938333E0,-6.483916626E0,-2.749033356E0,-6.397546234E0,9.514565519E0
6.448939333E0,-6.203250275E0,-3.275338898E0,-6.937772827E0,9.866146698E0
6.458940333E0,-6.670428772E0,-3.541335754E0,-7.566016388E0,1.069019564E1
6.468941333E0,-7.673193512E0,-3.438649292E0,-7.848329315E0,1.150210766E1
6.478942917E0,-8.602311401E0,-3.349285126E0,-7.766000519E0,1.206350846E1
6.488943917E0,-9.412277069E0,-3.462599487E0,-7.539072418E0,1.254663970E1
6.498944917E0,-1.012569351E1,-3.920946350E0,-7.025490417E0,1.293294263E1
6.508945917E0,-1.082189575E1,-4.672982483E0,-6.692732391E0,1.355517834E1
6.518946917E0,-1.160192368E1,-5.236560516E0,-6.596632233E0,1.433672751E1
6.528948917E0,-1.223480759E1,-5.393134918E0,-7.068151703E0,1.512399383E1
6.538949917E0,-1.250514542E1,-5.532195740E0,-7.294930115E0,1.549838240E1
6.548950917E0,-1.240874588E1,-6.242618408E0,-6.962621155E0,1.553786833E1
6.558951917E0,-1.239662109E1,-7.861651611E0,-6.700965271E0,1.613644063E1
6.568952917E0,-1.324580521E1,-9.940378876E0,-6.487808533E0,1.778634722E1
6.578953917E0,-1.428075302E1,-1.116528168E1,-6.757098541E0,1.934584716E1
6.588954917E0,-1.361179413E1,-1.121976837E1,-6.330036621E0,1.874122476E1
6.598955917E0,-1.192644882E1,-1.028840515E1,-5.426665192E0,1.665953652E1
6.608956917E0,-1.099733093E1,-9.514065399E0,-4.596491547E0,1.525078564E1
6.618957917E0,-1.110839996E1,-9.526788940E0,-4.296964417E0,1.525189039E1
6.628958917E0,-1.160371994E1,-1.011940659E1,-4.519551544E0,1.604602917E1
6.638959917E0,-1.173469757E1,-1.109313171E1,-5.105283508E0,1.693589732E1
6.648960917E0,-1.108923981E1,-1.204904388E1,-6.101761322E0,1.747518782E1
6.658961917E0,-1.012419662E1,-1.265528320E1,-6.586004333E0,1.749374183E1
6.668962917E0,-9.315578156E0,-1.319042038E1,-6.351442108E0,1.735246389E1
6.678964917E0,-8.736582184E0,-1.309387115E1,-6.435118103E0,1.700553072E1
6.688965917E0,-8.361462250E0,-1.223944794E1,-6.116879883E0,1.603540945E1
6.698966917E0,-8.137677612E0,-1.097113541E1,-5.499413910E0,1.472518803E1
6.708967917E0,-7.747289429E0,-1.008183472E1,-4.940326538E0,1.364077384E1
6.718968917E0,-7.290888519E0,-9.380543060E0,-4.356390839E0,1.265423979E1
6.728969917E0,-6.733148346E0,-8.754993896E0,-3.734284515E0,1.165890585E1
6.738970917E0,-6.041736145E0,-8.344996490E0,-3.287613373E0,1.081433973E1
6.748971917E0,-5.520520020E0,-8.281378784E0,-2.858904877E0,1.035522636E1
6.758972917E0,-5.285209351E0,-8.558452606E0,-2.803669739E0,1.044227527E1
6.768973917E0,-5.111121368E0,-8.831784210E0,-3.159180450E0,1.068196588E1
6.778974917E0,-4.691394196E0,-9.180109863E0,-3.351530457E0,1.084049598E1
6.788975917E0,-4.271517334E0,-9.442214813E0,-3.393742676E0,1.090498832E1
6.798976917E0,-3.966302032E0,-9.523795166E0,-3.555855560E0,1.091230200E1
6.808977917E0,-3.747008057E0,-9.515562286E0,-3.590283966E0,1.083864078E1
6.818978917E0,-3.572471008E0,-9.388177185E0,-3.649710388E0,1.068741343E1
6.828980917E0,-3.381767578E0,-9.318122864E0,-3.714824982E0,1.058601390E1
6.838981917E0,-3.260819092E0,-9.199868774E0,-3.581003265E0,1.039683178E1
6.848982917E0,-3.288361816E0,-8.991651764E0,-3.260669403E0,1.011410351E1
6.858983917E0,-3.416345673E0,-8.654253387E0,-3.081641693E0,9.801226197E0
6.868984917E0,-3.525468750E0,-8.344996490E0,-2.954855347E0,9.528854415E0
6.878985917E0,-3.753744049E0,-8.325986023E0,-2.464325409E0,9.459679559E0
6.888986917E0,-3.977977753E0,-8.087831268E0,-2.516566772E0,9.357907349E0
6.898987917E0,-3.911066895E0,-7.716453552E0,-2.362387390E0,8.967774186E0
6.908988917E0,-3.727099457E0,-7.817044373E0,-2.482587433E0,9.008922990E0
6.918989917E0,-3.550317078E0,-8.067024536E0,-2.428849182E0,9.142261458E0
6.928990917E0,-3.605402527E0,-8.295449524E0,-2.120939484E0,9.290414118E0
6.938991917E0,-3.769760742E0,-8.349487152E0,-1.729653168E0,9.322914342E0
6.948992917E0,-3.930676117E0,-8.363707581E0,-1.445993042E0,9.353754065E0
6.958993917E0,-3.967349854E0,-8.085286560E0,-1.260079651E0,9.093927883E0
6.968995917E0,-3.948938141E0,-8.083490295E0,-1.166673889E0,9.071827587E0
6.978996917E0,-4.076472931E0,-8.308023376E0,-8.857081604E-1,9.296524239E0
6.988997917E0,-4.318968658E0,-8.677305450E0,-4.673281860E-1,9.703994836E0
6.998998917E0,-4.586163025E0,-9.079519043E0,-9.684860229E-2,1.017250888E1
7.008999917E0,-4.832400970E0,-9.344767456E0,2.847079468E-1,1.052415491E1
7.019000917E0,-5.129084015E0,-9.663454742E0,6.620732117E-1,1.096030115E1
7.029001917E0,-5.247487793E0,-9.969119110E0,8.366102600E-1,1.129687482E1
7.039002917E0,-5.044060822E0,-1.024903702E1,1.010398865E0,1.146761593E1
7.049003917E0,-4.653522949E0,-9.880054321E0,8.840615845E-1,1.095683869E1
7.059004917E0,-4.089645538E0,-9.914033661E0,1.081950073E0,1.077886265E1
7.069005917E0,-3.957620087E0,-1.008033783E1,1.266516266E0,1.090321196E1
7.079006917E0,-4.359534302E0,-9.969268799E0,2.064207458E-1,1.088276018E1
7.089007917E0,-4.309987335E0,-9.375902710E0,1.296304321E-1,1.031990051E1
7.099008917E0,-3.641178131E0,-8.696615295E0,-1.296304321E-1,9.429003120E0
7.109010917E0,-3.046015778E0,-8.629704437E0,-3.180885315E-1,9.157029601E0
7.119011917E0,-3.202290802E0,-8.730744324E0,-5.370831299E-1,9.314989056E0
7.129012917E0,-3.654350739E0,-8.915160828E0,-5.438191223E-1,9.650394352E0
7.139013917E0,-3.582949219E0,-8.962462463E0,-6.026467896E-1,9.670906972E0
7.149014917E0,-2.987038422E0,-8.754095764E0,-5.581892395E-1,9.266507778E0
7.159015917E0,-2.400108948E0,-8.537196808E0,-4.652325439E-1,8.880354363E0
7.169016917E0,-2.135908356E0,-8.393645325E0,-2.902464294E-1,8.666004231E0
7.179017917E0,-2.300715637E0,-8.349786530E0,-6.406677246E-2,8.661196920E0
7.189018917E0,-3.320245514E0,-8.258177032E0,-1.769320679E-1,8.902405469E0
7.199019917E0,-4.603526917E0,-8.233328705E0,6.735992432E-2,9.433170145E0
7.209020917E0,-5.218448181E0,-8.258775787E0,3.056643677E-1,9.774098917E0
7.219021917E0,-5.176685028E0,-8.238867188E0,1.348695374E-1,9.731145370E0
7.229022917E0,-4.908143463E0,-8.223748627E0,-3.519181824E-1,9.583515020E0
7.239023917E0,-4.948260040E0,-8.281079407E0,-7.942483521E-1,9.679482631E0
7.249025917E0,-5.317542114E0,-8.298143921E0,-1.096170502E0,9.916503236E0
7.259026917E0,-6.000272369E0,-7.917485504E0,-1.929038544E0,1.011983374E1
7.269027917E0,-6.893764343E0,-7.160659332E0,-2.794089661E0,1.032501651E1
7.279028917E0,-7.715854797E0,-6.310577087E0,-3.131637726E0,1.044820335E1
7.289029917E0,-8.059989166E0,-5.904621277E0,-3.050356750E0,1.044665756E1
7.299030917E0,-8.069269867E0,-6.092181244E0,-2.953059082E0,1.053320210E1
7.309031917E0,-7.898475037E0,-6.864425354E0,-2.923271027E0,1.086516253E1
7.319032917E0,-7.695796509E0,-7.812553711E0,-2.976859589E0,1.136322896E1
7.329033917E0,-7.556885376E0,-8.510701904E0,-2.962788849E0,1.176081125E1
7.339034917E0,-7.582631836E0,-8.892857208E0,-3.048560486E0,1.207778688E1
7.349035917E0,-8.048912201E0,-8.979077911E0,-3.210523682E0,1.247863334E1
7.359036917E0,-8.660240936E0,-8.984167328E0,-3.388353882E0,1.293042836E1
7.369037917E0,-9.081764374E0,-8.834777985E0,-3.249891815E0,1.308027305E1
7.379039917E0,-9.146130524E0,-8.559350739E0,-3.115171967E0,1.290807828E1
7.389040917E0,-8.956474915E0,-8.258177032E0,-2.906954956E0,1.252462845E1
7.399041917E0,-8.799900513E0,-7.946674805E0,-2.816093903E0,1.218680739E1
7.409042917E0,-8.880732422E0,-7.573800201E0,-3.332669678E0,1.213822660E1
7.419043917E0,-9.071585541E0,-7.158563690E0,-3.488345947E0,1.207092605E1
7.429044917E0,-9.109606476E0,-6.773115234E0,-3.432212677E0,1.185917805E1
7.439045917E0,-9.055868225E0,-6.459816742E0,-3.487148438E0,1.165753773E1
7.449046917E0,-9.068292389E0,-6.373596039E0,-3.502117310E0,1.162417649E1
7.459047917E0,-9.057215424E0,-6.352938995E0,-3.802093506E0,1.169824346E1
7.469048917E0,-8.630303192E0,-6.313720551E0,-4.349056091E0,1.154380740E1
7.479050417E0,-7.546706543E0,-6.212830353E0,-4.679568787E0,1.083745379E1
7.489051417E0,-6.372099152E0,-6.038442993E0,-5.132975922E0,1.016926168E1
7.499052417E0,-5.586981812E0,-5.935307465E0,-5.596861267E0,9.887724536E0
7.509054417E0,-5.338797913E0,-6.074967041E0,-5.899232483E0,1.001044113E1
7.519055417E0,-5.775739288E0,-6.111790466E0,-6.207291870E0,1.045196725E1
7.529056417E0,-6.521488495E0,-5.877677307E0,-6.581513672E0,1.097238465E1
7.539057417E0,-7.011868744E0,-5.497168579E0,-6.819518738E0,1.122011593E1
7.549058417E0,-7.172035675E0,-5.028343506E0,-7.070696411E0,1.125686821E1
7.559059417E0,-7.072492676E0,-4.561763763E0,-7.467970276E0,1.125168527E1
7.569060417E0,-6.865772552E0,-4.150718536E0,-7.492968292E0,1.097778989E1
7.579061417E0,-6.928791504E0,-3.859424286E0,-7.124734039E0,1.066138559E1
7.589062417E0,-7.499105530E0,-3.498225403E0,-6.944059753E0,1.080250575E1
7.599063417E0,-8.268954620E0,-3.309617615E0,-6.739435272E0,1.116911666E1
7.609064417E0,-9.008716278E0,-3.088976440E0,-6.568640442E0,1.156917377E1
7.619065417E0,-9.657167816E0,-2.906206512E0,-6.441405029E0,1.196656280E1
7.629066417E0,-1.012359787E1,-2.850821686E0,-6.399941254E0,1.231152574E1
7.639067417E0,-1.041638901E1,-2.788850555E0,-6.376889191E0,1.252771181E1
7.649069417E0,-1.025412643E1,-2.797233124E0,-6.073320465E0,1.224160298E1
7.659070417E0,-1.014275803E1,-2.421664124E0,-5.818550262E0,1.194133680E1
7.669071417E0,-1.015548157E1,-2.099833374E0,-5.770200806E0,1.186753232E1
7.679072417E0,-1.016536102E1,-1.931283875E0,-6.212381287E0,1.206888990E1
7.689073417E0,-9.738897858E0,-1.931283875E0,-5.852978668E0,1.152533506E1
7.699074417E0,-7.981701965E0,-3.170706482E0,-5.848188629E0,1.039048873E1
7.709075417E0,-5.823190613E0,-4.693190460E0,-5.524411926E0,9.298102642E0
7.719076417E0,-4.595593414E0,-5.098846893E0,-4.146227875E0,8.019284511E0
7.729077417E0,-4.240531769E0,-4.545747070E0,-4.527335358E0,7.690428567E0
7.739078417E0,-4.143832855E0,-3.499722290E0,-5.813311157E0,7.950722826E0
7.749079417E0,-3.853287048E0,-1.994751892E0,-6.564149780E0,7.868603340E0
7.759080417E0,-3.363804932E0,-4.408332825E-1,-6.885980530E0,7.676343235E0
7.769082417E0,-3.160078583E0,6.959028625E-1,-7.030579834E0,7.739472220E0
7.779083417E0,-3.574267273E0,1.531165924E0,-7.387288055E0,8.348166292E0
7.789084417E0,-4.443809052E0,1.993704071E0,-7.509284363E0,8.950510960E0
7.799085417E0,-5.272485809E0,1.983225861E0,-6.800957336E0,8.830929289E0
7.809086417E0,-5.916147308E0,1.402134247E0,-6.283483429E0,8.743508645E0
7.819087417E0,-6.198160858E0,4.080514526E-1,-6.222560120E0,8.792266969E0
7.829088417E0,-6.001918945E0,-4.968168640E-1,-6.143524475E0,8.603066372E0
7.839089417E0,-5.577551422E0,-9.431886292E-1,-6.241420898E0,8.423420890E0
7.849090417E0,-5.215903473E0,-7.758366394E-1,-6.637946320E0,8.477611861E0
7.859091417E0,-5.013674011E0,-8.562194824E-2,-7.018604736E0,8.625837389E0
7.869092417E0,-4.978197784E0,7.987390137E-1,-7.418123932E0,8.969336646E0
7.879093417E0,-4.816384277E0,1.587149506E0,-7.454647980E0,9.016006741E0
7.889095417E0,-4.474495239E0,2.111359406E0,-7.207811279E0,8.742510487E0
7.899096417E0,-4.135300598E0,2.183659058E0,-6.878945160E0,8.317990408E0
7.909097417E0,-3.925736389E0,1.922751617E0,-6.597979431E0,7.914651765E0
7.919098417E0,-3.960164795E0,1.658850403E0,-6.440357208E0,7.740341777E0
7.929099417E0,-4.261338501E0,1.530417480E0,-6.611002350E0,8.012898075E0
7.939100417E0,-4.608766022E0,1.587149506E0,-7.143295441E0,8.647915214E0
7.949101417E0,-4.795577545E0,1.833686829E0,-7.506739655E0,9.094564949E0
7.959102417E0,-4.904401245E0,2.192790070E0,-7.643555145E0,9.342666382E0
7.969103417E0,-4.884492645E0,2.517165527E0,-7.567064209E0,9.351729863E0
7.979104417E0,-4.650678864E0,2.785707092E0,-7.078929291E0,8.916289464E0
7.989105417E0,-4.379442902E0,2.960393829E0,-6.387816467E0,8.291420323E0
7.999106417E0,-4.219425659E0,2.990930328E0,-5.859415283E0,7.815495159E0
8.009107417E0,-4.283342743E0,2.886896667E0,-5.824687500E0,7.785125683E0
8.019109417E0,-4.513863373E0,2.812052307E0,-6.154451752E0,8.133872208E0
8.029110417E0,-4.781057739E0,2.766846313E0,-6.700366516E0,8.683827674E0
8.039111417E0,-5.091212769E0,2.785258026E0,-7.293283539E0,9.320412786E0
8.049112417E0,-5.330864410E0,2.814896393E0,-7.711214447E0,9.787981677E0
8.059113417E0,-5.400918732E0,2.833008728E0,-7.824678497E0,9.920758801E0
8.069114417E0,-5.298082581E0,2.783611450E0,-7.694299622E0,9.747841730E0
8.079115417E0,-5.248535614E0,2.729274445E0,-7.649542694E0,9.670137978E0
8.089116417E0,-5.406008148E0,2.831661530E0,-7.622299347E0,9.764357554E0
8.099117417E0,-5.680537262E0,3.069965973E0,-7.593559113E0,9.967714615E0
8.109118417E0,-5.842949524E0,3.358416138E0,-7.653284912E0,1.019763639E1
8.119119417E0,-5.906567230E0,3.648961945E0,-7.685318298E0,1.035695791E1
8.129121417E0,-5.871091003E0,3.774850159E0,-7.638166351E0,1.034701834E1
8.139122417E0,-5.599256287E0,3.653003540E0,-7.315886536E0,9.910514701E0
8.149123417E0,-5.316344604E0,3.426075439E0,-6.987768860E0,9.424989470E0
8.159124417E0,-5.219645691E0,3.155887299E0,-6.893914032E0,9.204910454E0
8.169125417E0,-5.432802429E0,3.042872314E0,-7.063062286E0,9.416010993E0
8.179126417E0,-5.741909637E0,2.971321106E0,-7.196285248E0,9.673923546E0
8.189127417E0,-5.817652130E0,2.945275269E0,-7.127428436E0,9.660225610E0
8.199128417E0,-5.730832672E0,3.193159790E0,-7.085964661E0,9.656583647E0
8.209129417E0,-5.683680725E0,3.521726532E0,-7.199578400E0,9.825513395E0
8.219130417E0,-5.679639130E0,3.781436462E0,-7.090605011E0,9.840439105E0
8.229131417E0,-5.701942749E0,3.879332886E0,-7.054679718E0,9.865590741E0
8.239132417E0,-5.977220306E0,3.834725647E0,-7.421417084E0,1.027179220E1
8.249134417E0,-6.175258484E0,3.681294708E0,-7.839497681E0,1.063689203E1
8.259135417E0,-6.166426849E0,3.652704163E0,-8.098459167E0,1.081443982E1
8.269136417E0,-6.199508057E0,3.793411560E0,-8.275391235E0,1.101389901E1
8.279137417E0,-6.347250824E0,3.957320709E0,-8.252488861E0,1.113784327E1
8.289138417E0,-6.371500397E0,4.120930481E0,-7.939789124E0,1.098263796E1
8.299139417E0,-6.295009460E0,4.301754456E0,-7.712112579E0,1.084476445E1
8.309140417E0,-6.226452026E0,4.502936096E0,-7.763605499E0,1.092331033E1
8.319141417E0,-6.084397430E0,4.677024078E0,-8.064928894E0,1.113272313E1
8.329142417E0,-5.931265869E0,4.797373810E0,-8.367749176E0,1.132315930E1
8.339143417E0,-5.758375397E0,4.812492371E0,-8.588540039E0,1.140534918E1
8.349144417E0,-5.591472473E0,4.738097076E0,-8.833131409E0,1.147773230E1
8.359145417E0,-5.483097839E0,4.640050964E0,-9.045090637E0,1.155024240E1
8.369147417E0,-5.353467407E0,4.476441193E0,-9.030870209E0,1.141292056E1
8.379148417E0,-5.053491211E0,4.205055542E0,-8.780890045E0,1.096924316E1
8.389149417E0,-4.716541901E0,3.964206390E0,-8.431815948E0,1.044299861E1
8.399150417E0,-4.393962708E0,3.757785645E0,-8.026159515E0,9.891769194E0
8.409151417E0,-4.050277405E0,3.675756226E0,-7.816894684E0,9.540428365E0
8.419152417E0,-3.885021057E0,3.774700470E0,-7.752229156E0,9.457209374E0
8.429153417E0,-3.980073395E0,3.980372772E0,-7.858957214E0,9.666827822E0
8.439154417E0,-4.326902161E0,4.354744263E0,-7.961194611E0,1.005318355E1
8.449155417E0,-4.934937744E0,4.831502838E0,-8.199199677E0,1.072025679E1
8.459156417E0,-5.426665192E0,5.126389618E0,-8.353379059E0,1.120301331E1
8.469157417E0,-5.574108582E0,5.203628998E0,-8.135881348E0,1.115082986E1
8.479157958E0,-5.528303833E0,5.040318604E0,-7.767048340E0,1.078396934E1
8.489159958E0,-5.414390717E0,4.812342682E0,-7.408394165E0,1.036139822E1
8.499160958E0,-5.386698303E0,4.675676880E0,-7.068900146E0,1.004230164E1
8.509161958E0,-5.388344879E0,4.590953064E0,-6.749913483E0,9.781229094E0
8.519162958E0,-5.363197174E0,4.607867889E0,-6.453080750E0,9.572804269E0
8.529163958E0,-5.201982422E0,4.672683105E0,-6.244863739E0,9.375121953E0
8.539164958E0,-4.867128754E0,4.812342682E0,-6.176605682E0,9.219438277E0
8.549165958E0,-4.359683990E0,4.962181091E0,-6.083349609E0,8.979823392E0
8.559166958E0,-3.744762726E0,5.065166931E0,-6.006708984E0,8.704005787E0
8.569167958E0,-3.065924377E0,4.997058563E0,-5.903423767E0,8.319909780E0
8.579168958E0,-2.482587433E0,4.850064240E0,-5.974525909E0,8.085871835E0
8.589169958E0,-2.136058044E0,4.814438324E0,-6.164331207E0,8.108053994E0
8.599171958E0,-1.964963837E0,4.998555450E0,-6.465654602E0,8.405434486E0
8.609172958E0,-2.008074188E0,5.454357605E0,-6.884184265E0,9.009682116E0
8.619173958E0,-2.161804504E0,6.157146149E0,-7.338339844E0,9.820136408E0
8.629174958E0,-2.284848633E0,6.805897064E0,-7.546107788E0,1.041558980E1
8.639175958E0,-2.451601868E0,7.306905212E0,-7.491770782E0,1.074838802E1
8.649176958E0,-2.715952148E0,7.591613159E0,-7.394622803E0,1.094026658E1
8.659177958E0,-3.097508698E0,7.649842072E0,-7.475155334E0,1.113519605E1
8.669178958E0,-3.627406769E0,7.670199738E0,-7.746091919E0,1.148877643E1
8.679179958E0,-4.220323792E0,7.702682190E0,-8.256530457E0,1.205457345E1
8.689180958E0,-4.843178558E0,7.910749512E0,-9.068142700E0,1.297179820E1
8.699181958E0,-5.295837250E0,8.336164856E0,-9.949958954E0,1.401924463E1
8.709183958E0,-5.389692078E0,8.873397675E0,-1.061577438E1,1.484859026E1
8.719184958E0,-5.178481293E0,9.254056091E0,-1.075648178E1,1.510483773E1
8.729185958E0,-4.811594238E0,9.372459869E0,-1.006686584E1,1.457176143E1
8.739186958E0,-4.411775665E0,8.935518494E0,-8.965905304E0,1.340502567E1
8.749187958E0,-3.556005249E0,7.904462585E0,-6.882687378E0,1.106784024E1
8.759188958E0,-2.509082336E0,6.725963287E0,-6.088738403E0,9.413119125E0
8.769189958E0,-2.089205475E0,6.306685181E0,-5.435646515E0,8.584014825E0
8.779190958E0,-2.415077820E0,6.232140198E0,-4.597539368E0,8.112307967E0
8.789191958E0,-2.784808960E0,5.944588165E0,-4.067641296E0,7.722628770E0
8.799192958E0,-2.785108337E0,5.623356171E0,-3.807931366E0,7.340252336E0
8.809193958E0,-2.468217316E0,5.312303009E0,-3.588188324E0,6.869334424E0
8.819195958E0,-2.220033417E0,5.138664093E0,-3.542982330E0,6.624737038E0
8.829196958E0,-2.181713104E0,5.459297333E0,-3.435805206E0,6.809446149E0
8.839197958E0,-2.276615753E0,6.150859222E0,-3.071762238E0,7.242359540E0
8.849198958E0,-2.430196381E0,6.878346405E0,-2.748883667E0,7.795759433E0
8.859199958E0,-2.603086853E0,7.485184479E0,-2.963836670E0,8.460991411E0
8.869200958E0,-2.426454163E0,7.978857880E0,-3.240611115E0,8.947145537E0
8.879201958E0,-1.885628815E0,8.236472168E0,-3.280877380E0,9.064172670E0
8.889202958E0,-1.151555328E0,8.225844269E0,-3.197201385E0,8.900151140E0
8.899203958E0,-4.935237122E-1,8.012388153E0,-3.427123260E0,8.728522407E0
8.909204958E0,-2.170486450E-2,7.751031647E0,-3.990102539E0,8.717791060E0
8.919205958E0,3.968247986E-1,7.656278687E0,-4.655618591E0,8.969440212E0
8.929207958E0,7.554789734E-1,7.675738220E0,-4.983736267E0,9.182882602E0
8.939208958E0,9.728269958E-1,7.744894409E0,-4.615801392E0,9.068373849E0
8.949209958E0,9.154962158E-1,7.679630127E0,-4.319717102E0,8.858600795E0
8.959210958E0,5.406756592E-1,7.602989502E0,-3.903732147E0,8.563696878E0
8.969211958E0,-8.232879639E-2,7.694299622E0,-3.523822174E0,8.463235044E0
8.979212958E0,-5.800437927E-1,8.005502472E0,-3.257825317E0,8.662444599E0
8.989213958E0,-8.671467590E-1,8.490643616E0,-3.060385895E0,9.066914268E0
8.999214958E0,-8.021818542E-1,8.996142426E0,-2.725083160E0,9.433989214E0
9.009215958E0,-5.282514954E-1,9.345515900E0,-2.426154785E0,9.669743746E0
9.019216958E0,-3.233276367E-1,9.523645477E0,-2.405946808E0,9.828170938E0
9.029217958E0,-2.891986084E-1,9.436077576E0,-2.207609253E0,9.695191306E0
9.039219958E0,-3.480262756E-1,9.078920288E0,-1.987117767E0,9.300352300E0
9.049220958E0,-4.939727783E-1,8.791517944E0,-1.985471191E0,9.026455158E0
9.059221958E0,-5.207670593E-1,8.678802338E0,-1.871857452E0,8.893630230E0
9.069222958E0,-4.496649170E-1,8.704997864E0,-1.709744568E0,8.882703014E0
9.079223958E0,-4.872367859E-1,8.884774017E0,-1.832938385E0,9.084947559E0
9.089224958E0,-5.920188904E-1,9.117090912E0,-1.793270874E0,9.310620467E0
9.099225958E0,-6.936575317E-1,9.303603058E0,-1.701960754E0,9.483399234E0
9.109226958E0,-9.505233765E-1,9.420959015E0,-1.781445465E0,9.634911074E0
9.119227958E0,-1.287921753E0,9.475595398E0,-1.736688538E0,9.719142846E0
9.129228958E0,-1.463955688E0,9.412277069E0,-1.565893707E0,9.653297312E0
9.139230958E0,-1.353485413E0,9.303902435E0,-1.383572845E0,9.503094081E0
9.149231958E0,-1.120120697E0,9.327702942E0,-1.200802917E0,9.471147776E0
9.159232958E0,-9.321116638E-1,9.319020996E0,-9.749226379E-1,9.416127581E0
9.169233958E0,-8.924441528E-1,9.184899902E0,-9.403445435E-1,9.275941496E0
9.179234958E0,-8.755293274E-1,9.048832855E0,-7.909552002E-1,9.125433566E0
9.189235958E0,-6.997947693E-1,8.957672424E0,-5.113366699E-1,8.999504051E0
9.199236958E0,-4.463717651E-1,8.894354095E0,-1.709445190E-1,8.907188364E0
9.209237958E0,-1.622625732E-1,8.877738647E0,4.790039062E-3,8.879222690E0
9.219238958E0,4.580474854E-2,8.954978027E0,9.595046997E-2,8.955609194E0
9.229239958E0,2.236349487E-1,8.973090363E0,2.520758057E-1,8.979415652E0
9.239240958E0,2.395019531E-1,8.981173553E0,2.998265076E-1,8.989367915E0
9.249242958E0,2.944377136E-1,9.048383789E0,2.267784119E-1,9.056012986E0
9.259243958E0,3.263214111E-1,9.140891418E0,1.432521057E-1,9.147835960E0
9.269244958E0,3.219804382E-1,9.163195038E0,-8.726852417E-2,9.169265538E0
9.279245958E0,2.418969727E-1,8.968749390E0,-2.742297363E-1,8.976200850E0
9.289246958E0,-2.544708252E-3,8.314010925E0,-2.016307068E-1,8.316455921E0
9.299247958E0,-1.022373962E-1,7.502847748E0,-3.442840576E-3,7.503545073E0
9.309248958E0,-1.613644409E-1,6.853348389E0,1.942959595E-1,6.858000695E0
9.319249958E0,-2.670446777E-1,6.626869354E0,2.730322266E-1,6.637865387E0
9.329250958E0,-3.999682617E-1,6.923552399E0,-6.152206421E-2,6.935368584E0
9.339251958E0,-6.664141846E-1,7.555987244E0,-7.369175720E-1,7.621030022E0
9.349253958E0,-1.026565247E0,8.266409912E0,-1.154249725E0,8.409498289E0
9.359254958E0,-1.287921753E0,8.675359497E0,-1.106648712E0,8.839981686E0
9.369255958E0,-1.183139648E0,8.910819855E0,-6.394702148E-1,9.011739680E0
9.379256958E0,-9.997709656E-1,8.675060120E0,-1.027463379E0,8.792718070E0
9.389257958E0,-9.321116638E-1,8.214168549E0,-1.534309387E0,8.408061750E0
9.399258958E0,-7.707472229E-1,7.627837830E0,-1.737137604E0,7.861018273E0
9.409259958E0,-5.300477600E-1,6.993606720E0,-1.817819824E0,7.245409201E0
9.419260958E0,-4.043092346E-1,6.365662537E0,-2.103575592E0,6.716409439E0
9.429261958E0,-4.611909485E-1,5.826334076E0,-2.510878601E0,6.361083021E0
9.439262958E0,-5.498066711E-1,5.344935150E0,-2.926863556E0,6.118590476E0
9.449263958E0,-6.472540283E-1,4.756508789E0,-3.115471344E0,5.722715731E0
9.459265958E0,-8.349636841E-1,4.107159119E0,-3.028502197E0,5.170855436E0
9.469266958E0,-1.266665955E0,3.486250305E0,-2.738854523E0,4.610825081E0
9.479267667E0,-2.125430145E0,2.963387604E0,-2.549198914E0,4.449442043E0
9.489268667E0,-3.190615082E0,2.706521759E0,-2.596201172E0,4.923976559E0
9.499269667E0,-4.205803986E0,2.448458405E0,-2.751278687E0,5.590462426E0
9.509270667E0,-5.039270782E0,2.344724121E0,-2.942431183E0,6.288869731E0
9.519271667E0,-5.556744690E0,2.095642090E0,-3.125949554E0,6.711235947E0
9.529272667E0,-5.672154694E0,1.806892548E0,-3.210224304E0,6.763411834E0
9.539273667E0,-5.603297882E0,1.383722534E0,-3.344794464E0,6.670778456E0
9.549274667E0,-5.515430603E0,8.875044250E-1,-3.213966522E0,6.444937521E0
9.559276667E0,-5.885161743E0,3.806584167E-1,-2.698737946E0,6.485616090E0
9.569277667E0,-6.911726990E0,5.852828979E-2,-2.167342987E0,7.243809161E0
9.579278667E0,-8.421786804E0,1.736389160E-2,-1.700763245E0,8.591821116E0
9.589279667E0,-1.017284546E1,2.692900085E-1,-1.551822968E0,1.029404956E1
9.599280667E0,-1.194111832E1,7.264393616E-1,-1.934277649E0,1.211855812E1
9.609281667E0,-1.320868240E1,8.437953186E-1,-1.941163330E0,1.337719688E1
9.619282667E0,-1.315883606E1,7.509883118E-1,-1.708097992E0,1.329046834E1
9.629283667E0,-1.211101501E1,2.914439392E-1,-1.684447174E0,1.223106645E1
9.639284667E0,-1.109417953E1,-2.642005920E-1,-1.892664185E0,1.125756631E1
9.649285667E0,-1.078342575E1,-3.945794678E-1,-2.565964050E0,1.109153440E1
9.659287667E0,-1.159683426E1,-5.718109131E-2,-3.291954346E0,1.205515649E1
9.669288667E0,-1.262280075E1,5.436694336E-1,-3.957470398E0,1.323979785E1
9.679289667E0,-1.304597076E1,6.650669861E-1,-4.709057465E0,1.388578012E1
9.689290667E0,-1.286514679E1,-9.535171509E-2,-5.459746399E0,1.397604825E1
9.699291667E0,-1.224124420E1,-1.137334900E0,-6.596033478E0,1.395167545E1
9.709292667E0,-1.156824371E1,-2.089055786E0,-7.222929840E0,1.379706969E1
9.719293667E0,-1.098894836E1,-2.778072968E0,-7.242688751E0,1.345106746E1
9.729294667E0,-1.071082672E1,-3.056493988E0,-7.399113464E0,1.337201722E1
9.739295667E0,-1.098685272E1,-2.869981842E0,-7.566016388E0,1.364523113E1
9.749296667E0,-1.190070236E1,-2.518063660E0,-7.595804443E0,1.434097648E1
9.759297667E0,-1.259870087E1,-2.225422211E0,-7.497309265E0,1.482866864E1
9.769299667E0,-1.263866776E1,-2.295027466E0,-7.255711670E0,1.475291244E1
9.779300667E0,-1.244242584E1,-2.748135223E0,-6.800657959E0,1.444351608E1
9.789301667E0,-1.192091034E1,-3.197351074E0,-6.057303772E0,1.374853033E1
9.799302667E0,-1.126916565E1,-3.692671051E0,-5.515879669E0,1.307879362E1
9.809303667E0,-1.076261902E1,-4.066593475E0,-5.399272156E0,1.270918134E1
9.819304667E0,-1.043360321E1,-4.219725037E0,-5.171894989E0,1.238606689E1
9.829305667E0,-1.034708313E1,-4.289180603E0,-5.908962250E0,1.266392650E1
9.839306667E0,-9.975555725E0,-4.364324341E0,-6.372847595E0,1.261634755E1
9.849307667E0,-9.601633301E0,-4.668491821E0,-6.696773987E0,1.260289490E1
9.859308667E0,-9.115743713E0,-4.833897858E0,-6.919211426E0,1.242331834E1
9.869310667E0,-8.587043152E0,-4.800068207E0,-6.729705505E0,1.191918206E1
9.879311667E0,-8.497978363E0,-4.547693024E0,-6.727160797E0,1.175380111E1
9.889312667E0,-8.804241486E0,-4.267326050E0,-6.167324982E0,1.156549338E1
9.899313667E0,-9.131311340E0,-3.912114716E0,-5.492827606E0,1.135150402E1
9.909314667E0,-9.153614960E0,-3.865262146E0,-4.945565643E0,1.109898814E1
9.919315667E0,-9.052575073E0,-4.137994995E0,-4.492008820E0,1.092017680E1
9.929316667E0,-8.760532379E0,-4.552932129E0,-4.145180054E0,1.070787730E1
9.939317667E0,-8.248896332E0,-5.287754059E0,-3.996988220E0,1.058208621E1
9.949318667E0,-7.712861023E0,-6.135890350E0,-4.079915771E0,1.066691559E1
9.959319667E0,-7.215894470E0,-7.144193573E0,-4.119134216E0,1.095791502E1
9.969321667E0,-6.853947144E0,-7.567812653E0,-4.381388855E0,1.111057821E1
9.979322667E0,-6.541247406E0,-7.680827637E0,-4.283791809E0,1.096056126E1
9.989323667E0,-6.184389496E0,-7.266638947E0,-3.658092957E0,1.021921519E1
9.999324667E0,-6.132746887E0,-6.594686279E0,-3.297492828E0,9.590303982E0
1.000932567E1,-6.234235840E0,-6.021378479E0,-3.120560760E0,9.211981044E0
1.001932667E1,-6.108048248E0,-6.014941864E0,-2.985990601E0,9.077660431E0
1.002932767E1,-5.896687775E0,-6.561006317E0,-2.762056274E0,9.243737635E0
1.003932867E1,-5.708978119E0,-7.477400665E0,-2.718945923E0,9.792681900E0
1.004932967E1,-5.484295349E0,-8.724756775E0,-2.415227509E0,1.058452645E1
1.005933067E1,-5.284909973E0,-9.362430725E0,-2.518961792E0,1.104221676E1
1.006933267E1,-4.992268524E0,-9.873168640E0,-2.706372070E0,1.138976092E1
1.007933367E1,-4.905449066E0,-9.711804199E0,-2.740501099E0,1.122020132E1
1.008933467E1,-5.030289459E0,-9.449100494E0,-2.611319733E0,1.101854359E1
1.009933567E1,-5.102589111E0,-8.892707520E0,-2.485581207E0,1.054963396E1
1.010933667E1,-5.047353973E0,-8.575217743E0,-2.299667816E0,1.021266927E1
1.011933767E1,-4.973707123E0,-8.542435913E0,-1.944306793E0,1.007428919E1
1.012933867E1,-5.083279266E0,-8.673712921E0,-1.629960480E0,1.018478253E1
1.013933967E1,-5.350773010E0,-8.902287598E0,-1.235231323E0,1.045979410E1
1.014934067E1,-5.826034698E0,-9.326355743E0,-9.207353210E-1,1.103500545E1
1.015934167E1,-6.068979492E0,-9.911039886E0,-7.767347717E-1,1.164751221E1
1.016934367E1,-6.552174683E0,-1.065304688E1,-7.527845764E-1,1.252936892E1
1.017934467E1,-6.585106201E0,-1.146600632E1,-4.174818420E-1,1.322902928E1
1.018934567E1,-6.309379578E0,-1.220531891E1,-4.384382629E-1,1.374664717E1
1.019934667E1,-6.157445526E0,-1.268207748E1,4.640350342E-3,1.409784545E1
1.020934767E1,-6.558311920E0,-1.307171722E1,5.568420410E-2,1.462478537E1
1.021934867E1,-6.932982788E0,-1.361568604E1,2.806663513E-1,1.528175154E1
1.022934967E1,-7.035369873E0,-1.380983231E1,2.634521484E-1,1.550088077E1
1.023935067E1,-6.972949677E0,-1.354727829E1,2.460882568E-1,1.523848207E1
1.024935167E1,-6.966513062E0,-1.276799881E1,4.049079895E-1,1.455053430E1
1.025935267E1,-6.932683411E0,-1.160357025E1,3.382965088E-1,1.352107194E1
1.026935367E1,-6.832242279E0,-1.076770844E1,4.191284180E-1,1.275926127E1
1.027935567E1,-6.914421387E0,-1.020248383E1,4.207749939E-1,1.233194838E1
1.028935667E1,-6.872059479E0,-9.981393585E0,4.686753845E-1,1.212736888E1
1.029935767E1,-6.784940643E0,-1.003258713E1,8.382568359E-1,1.214046533E1
1.030935867E1,-6.815477142E0,-1.019005966E1,1.091380463E0,1.230768686E1
1.031935967E1,-6.976093140E0,-1.023840912E1,8.985813904E-1,1.242168850E1
1.032936067E1,-7.058571625E0,-9.790241089E0,4.833448792E-1,1.207915048E1
1.033936167E1,-6.939718781E0,-8.855435028E0,3.832031250E-2,1.125077307E1
1.034936267E1,-6.899452515E0,-7.668702850E0,-3.757186890E-1,1.032243251E1
1.035936367E1,-6.766528931E0,-6.554270325E0,-7.069798279E-1,9.446914509E0
1.036936567E1,-6.605463867E0,-5.914051666E0,-9.232800293E-1,8.914067872E0
1.037936667E1,-6.400839386E0,-5.755531311E0,-9.544152832E-1,8.660704016E0
1.038936767E1,-6.214776306E0,-5.537734222E0,-9.777667236E-1,8.381287050E0
1.039936867E1,-6.055208130E0,-5.400469666E0,-9.954299927E-1,8.174441814E0
1.040936967E1,-5.908213806E0,-5.392386475E0,-9.098080444E-1,8.050625625E0
1.041937067E1,-5.743107147E0,-5.496270447E0,-7.619155884E-1,7.985786367E0
1.042937167E1,-5.586832123E0,-5.722150726E0,-6.027964783E-1,8.019916814E0
1.043937267E1,-5.543123016E0,-5.820945282E0,-4.194277954E-1,8.048946293E0
1.044937367E1,-5.464237061E0,-5.603148193E0,-1.820214844E-1,7.828555943E0
1.045937467E1,-5.334756317E0,-5.103187866E0,5.538482666E-3,7.382559315E0
1.046937567E1,-5.340893555E0,-4.508923645E0,1.419049072E-1,6.991113888E0
1.047937808E1,-5.505551147E0,-4.091292114E0,3.647914124E-1,6.868976443E0
1.048937908E1,-5.777685242E0,-3.947441254E0,6.732998657E-1,7.029741952E0
1.049938008E1,-6.057154083E0,-4.019890594E0,8.737330627E-1,7.322024682E0
1.050938108E1,-6.264323273E0,-4.389621735E0,1.119372253E0,7.730686857E0
1.051938208E1,-6.245612183E0,-4.944517822E0,1.492995300E0,8.104626025E0
1.052938308E1,-6.104605408E0,-5.556744690E0,1.875599670E0,8.465311149E0
1.053938408E1,-6.032006378E0,-5.978567505E0,2.148482208E0,8.760385046E0
1.054938508E1,-6.184838562E0,-5.982908478E0,2.354304199E0,8.921332308E0
1.055938608E1,-6.464157715E0,-5.665568390E0,2.494263153E0,8.950159151E0
1.056938808E1,-6.759493561E0,-5.188360748E0,2.522554321E0,8.886682213E0
1.057938908E1,-7.013066254E0,-4.791236572E0,2.628384247E0,8.890863283E0
1.058939008E1,-7.217840424E0,-4.620292053E0,2.798131256E0,9.015201471E0
1.059939108E1,-7.406298523E0,-4.727768555E0,2.942880249E0,9.266369164E0
1.060939208E1,-7.453749847E0,-5.019811249E0,3.064876556E0,9.494754345E0
1.061939308E1,-7.459737396E0,-5.362149353E0,3.113226013E0,9.700129067E0
1.062939408E1,-7.438780975E0,-5.518723755E0,3.012635193E0,9.740007448E0
1.063939508E1,-7.289691010E0,-5.443430328E0,2.790048065E0,9.516033678E0
1.064939608E1,-7.024442596E0,-5.332810364E0,2.652035065E0,9.209503252E0
1.065939708E1,-6.935826874E0,-5.366640015E0,2.633473663E0,9.156511509E0
1.066939908E1,-7.188501434E0,-5.452112274E0,2.534828796E0,9.371522723E0
1.067940008E1,-7.539222107E0,-5.494174805E0,2.534529419E0,9.666936750E0
1.068940108E1,-7.897277527E0,-5.490582275E0,2.565664673E0,9.954703475E0
1.069940208E1,-8.282426605E0,-5.300926666E0,2.415077820E0,1.012575996E1
1.070940308E1,-8.612490234E0,-5.028343506E0,2.280807037E0,1.023041090E1
1.071940408E1,-8.773106232E0,-4.871918793E0,2.228715363E0,1.027959911E1
1.072940508E1,-8.720715179E0,-4.915627899E0,2.087109833E0,1.022596198E1
1.073940608E1,-8.539292450E0,-5.021906891E0,1.788780212E0,1.006671739E1
1.074940708E1,-8.319250031E0,-5.075345764E0,1.555116119E0,9.868507579E0
1.075940808E1,-8.433911591E0,-5.143154755E0,1.264570312E0,9.959018206E0
1.076941008E1,-8.867110748E0,-5.154531097E0,8.964857483E-1,1.029555878E1
1.077941108E1,-9.188492432E0,-5.121300201E0,6.873706055E-1,1.054175447E1
1.078941208E1,-9.491911469E0,-5.075495453E0,5.983058167E-1,1.078030646E1
1.079941308E1,-9.680519257E0,-5.007536774E0,4.472698975E-1,1.090815878E1
1.080941408E1,-9.564959564E0,-4.964875488E0,2.558180237E-1,1.077979049E1
1.081941508E1,-9.345815277E0,-5.054688721E0,3.906875610E-2,1.062523730E1
1.082941608E1,-9.129215698E0,-5.198988647E0,-1.546284485E-1,1.050694876E1
1.083941708E1,-8.852740631E0,-5.351072388E0,-3.812571716E-1,1.035134529E1
1.084941808E1,-8.670270081E0,-5.497018890E0,-6.493496704E-1,1.028651812E1
1.085942008E1,-8.639583893E0,-5.489235077E0,-8.728349304E-1,1.027306928E1
1.086942108E1,-8.773555298E0,-5.340145111E0,-1.041085052E0,1.032357886E1
1.087942208E1,-8.944200439E0,-5.107528839E0,-1.077459412E0,1.035598818E1
1.088942308E1,-9.052575073E0,-4.831353149E0,-1.153950348E0,1.032582636E1
1.089942408E1,-9.072483673E0,-4.590054932E0,-1.293759613E0,1.024950624E1
1.090942508E1,-9.118737488E0,-4.409829712E0,-1.508562927E0,1.024078774E1
1.091942608E1,-9.293274536E0,-4.290827179E0,-1.753902740E0,1.038519736E1
1.092942708E1,-9.591155090E0,-4.163741455E0,-1.976639557E0,1.064115139E1
1.093942808E1,-9.867929535E0,-4.115391998E0,-2.194286957E0,1.091454900E1
1.094942908E1,-1.006776398E1,-4.136049042E0,-2.415227509E0,1.114899534E1
1.095943108E1,-1.019215530E1,-4.089944916E0,-2.618205414E0,1.128993706E1
1.096943208E1,-1.027807663E1,-3.994293823E0,-2.820734253E0,1.138199385E1
1.097943308E1,-1.038255936E1,-3.918102264E0,-3.062032471E0,1.151195496E1
1.098943408E1,-1.035307068E1,-3.797902222E0,-3.296295319E0,1.150980871E1
1.099943508E1,-1.027613068E1,-3.613485718E0,-3.521726532E0,1.144808711E1
1.100943608E1,-1.023945694E1,-3.375480652E0,-3.822900238E0,1.143918329E1
1.101943708E1,-1.025801834E1,-3.038082275E0,-4.257745972E0,1.151456838E1
1.102943808E1,-1.044108765E1,-2.691253510E0,-4.596341858E0,1.172115673E1
1.103943908E1,-1.066232758E1,-2.386487274E0,-4.716392212E0,1.190062630E1
1.104944108E1,-1.072100555E1,-2.242636414E0,-4.861141205E0,1.198332475E1
1.105944208E1,-1.055515045E1,-2.185605011E0,-5.133424988E0,1.193901681E1
1.106944308E1,-1.026595184E1,-2.161205750E0,-5.365592194E0,1.178346966E1
1.107944408E1,-9.893226929E0,-2.275867310E0,-5.465434570E0,1.152937492E1
1.108944508E1,-9.589807892E0,-2.309846649E0,-5.313051453E0,1.120394228E1
1.109944608E1,-9.498048706E0,-2.487078094E0,-5.258265381E0,1.113767666E1
1.110944708E1,-9.523495789E0,-2.543959808E0,-5.295837250E0,1.118993278E1
1.111944808E1,-9.446106720E0,-2.451901245E0,-5.503006439E0,1.120374186E1
1.112944908E1,-9.182804260E0,-2.406994629E0,-5.885610809E0,1.116950902E1
1.113945008E1,-8.769513702E0,-2.147733765E0,-6.105802917E0,1.089944770E1
1.114945208E1,-8.316705322E0,-1.896406403E0,-6.099965057E0,1.048682594E1
1.115945308E1,-7.799979858E0,-1.703607330E0,-6.082750854E0,1.003702255E1
1.116945408E1,-7.455097046E0,-1.617835693E0,-6.172115021E0,9.812791047E0
1.117945508E1,-7.290289764E0,-1.489851837E0,-6.326144714E0,9.766682666E0
1.118945608E1,-7.144043884E0,-1.221609650E0,-6.599176941E0,9.801980894E0
1.119945708E1,-7.027286682E0,-8.268804932E-1,-6.826703796E0,9.832109346E0
1.120945808E1,-7.103627930E0,-3.089575195E-1,-7.218439178E0,1.013226770E1
1.121945908E1,-7.510032806E0,2.746788025E-1,-7.622898102E0,1.070442043E1
1.122946008E1,-8.093519440E0,7.825726318E-1,-7.716154175E0,1.120966155E1
1.123946208E1,-8.601712646E0,1.106349335E0,-7.410040741E0,1.140711064E1
1.124946308E1,-9.080267487E0,1.229842529E0,-6.937174072E0,1.149296108E1
1.125946408E1,-9.541308746E0,1.150058441E0,-6.341862030E0,1.151427032E1
1.126946508E1,-1.024260040E1,1.084644470E0,-5.322182465E0,1.159365960E1
1.127946608E1,-1.085362976E1,6.319857788E-1,-3.606749725E0,1.145466405E1
1.128946708E1,-1.035441788E1,-1.862127686E-1,-2.620600433E0,1.068251803E1
1.129946808E1,-9.824220428E0,-7.750881958E-1,-2.313439178E0,1.012265131E1
1.130946908E1,-9.839189301E0,-8.355624390E-1,-1.530567169E0,9.992519529E0
1.131947008E1,-1.002959335E1,-8.551716614E-1,-1.220112762E0,1.013966156E1
1.132947108E1,-9.988728333E0,-8.719367981E-1,-1.456620941E0,1.013196487E1
1.133947308E1,-9.271120605E0,-5.752537537E-1,-2.145638123E0,9.533538541E0
1.134947408E1,-7.874375153E0,-1.456471252E-1,-3.205583954E0,8.503103293E0
1.135947508E1,-6.277196503E0,1.642085266E-1,-4.141737213E0,7.522243516E0
1.136947608E1,-4.843028870E0,4.567002869E-1,-4.855602722E0,6.873163870E0
1.137947708E1,-3.759132843E0,7.843688965E-1,-5.497767334E0,6.706098714E0
1.138947808E1,-3.041824493E0,1.046473846E0,-6.170169067E0,6.958361163E0
1.139947908E1,-2.640209656E0,1.163680115E0,-6.795718231E0,7.382861553E0
1.140948008E1,-2.511926422E0,1.289119263E0,-7.396119690E0,7.916703183E0
1.141948108E1,-2.546953583E0,1.400637360E0,-8.025860138E0,8.535993704E0
1.142948308E1,-2.564467163E0,1.733694763E0,-8.596922607E0,9.137246176E0
1.143948408E1,-2.506687317E0,2.101929016E0,-9.031768341E0,9.605957852E0
1.144948508E1,-2.435435486E0,2.397264862E0,-9.188492432E0,9.803398288E0
1.145948608E1,-2.574496307E0,2.727777557E0,-8.902137909E0,9.660065268E0
1.146948708E1,-3.097658386E0,2.918630676E0,-8.527916107E0,9.530962472E0
1.147948829E1,-3.778143311E0,3.025807800E0,-8.211025085E0,9.531569266E0
1.148948929E1,-4.550237732E0,3.180885315E0,-8.050409088E0,9.779150336E0
1.149949029E1,-5.405110016E0,3.295696564E0,-7.939938812E0,1.015477516E1
1.150949129E1,-6.307134247E0,3.264261932E0,-7.688761139E0,1.046672806E1
1.151949329E1,-7.218139801E0,3.155288544E0,-7.326364746E0,1.075792770E1
1.152949429E1,-7.994126129E0,3.035088501E0,-6.795119476E0,1.092206315E1
1.153949529E1,-8.492739258E0,2.868335266E0,-6.184389496E0,1.089039213E1
1.154949629E1,-8.686735840E0,2.705773315E0,-5.891149292E0,1.083910646E1
1.155949729E1,-8.574020233E0,2.652184753E0,-5.960155792E0,1.077364210E1
1.156949829E1,-8.331524506E0,2.630180511E0,-6.185137939E0,1.070458226E1
1.157949929E1,-8.181985474E0,2.553240509E0,-6.505022736E0,1.076007640E1
1.158950029E1,-8.147557068E0,2.450104980E0,-6.745722198E0,1.085773773E1
1.159950129E1,-8.197403412E0,2.409239960E0,-6.646478577E0,1.082485738E1
1.160950229E1,-8.227341156E0,2.513572998E0,-6.273603973E0,1.064731415E1
1.161950429E1,-8.196056213E0,2.660118256E0,-6.010451202E0,1.050605017E1
1.162950529E1,-8.148455200E0,2.852617950E0,-6.058351593E0,1.054696048E1
1.163950629E1,-7.963140564E0,3.014431458E0,-6.424340515E0,1.066632813E1
1.164950729E1,-7.540718994E0,3.117117920E0,-6.945556641E0,1.071539193E1
1.165950829E1,-6.986271973E0,3.157384186E0,-7.402256927E0,1.065694509E1
1.166950929E1,-6.464606781E0,3.087479553E0,-7.556885376E0,1.041298168E1
1.167951029E1,-6.124963074E0,2.844834137E0,-7.402556305E0,1.002028412E1
1.168951129E1,-5.999823303E0,2.572999420E0,-6.999294891E0,9.571224303E0
1.169951329E1,-5.939798126E0,2.389031982E0,-6.640940094E0,9.224465346E0
1.170951429E1,-5.851032715E0,2.330503693E0,-6.609954529E0,9.130023558E0
1.171951529E1,-5.754034424E0,2.422262878E0,-6.857539673E0,9.273732796E0
1.172951629E1,-5.571713562E0,2.567910004E0,-7.039261780E0,9.337524308E0
1.173951729E1,-5.313500519E0,2.632126465E0,-7.003935242E0,9.176954089E0
1.174951829E1,-5.054539032E0,2.565065918E0,-6.872807922E0,8.908614748E0
1.175951929E1,-4.816384277E0,2.410736847E0,-6.838080139E0,8.704513177E0
1.176952029E1,-4.647685089E0,2.262994080E0,-6.809040527E0,8.548985425E0
1.177952129E1,-4.639751587E0,2.213596802E0,-7.048243103E0,8.723820059E0
1.178952229E1,-4.956792297E0,2.414479065E0,-7.437134399E0,9.257994767E0
1.179952429E1,-5.600304108E0,2.705773315E0,-7.678731995E0,9.881677002E0
1.180952529E1,-6.307882690E0,2.865790558E0,-7.737260284E0,1.038592010E1
1.181952629E1,-6.896309052E0,2.856360168E0,-7.820786591E0,1.081122448E1
1.182952729E1,-7.252119141E0,2.756068726E0,-7.984546051E0,1.113292965E1
1.183952829E1,-7.458390198E0,2.597847748E0,-8.194858704E0,1.138121727E1
1.184952929E1,-7.494465179E0,2.451152802E0,-8.424930267E0,1.153926377E1
1.185953029E1,-7.537425842E0,2.308499451E0,-8.425229645E0,1.153804371E1
1.186953129E1,-7.762857056E0,2.196532288E0,-8.216413879E0,1.151504063E1
1.187953229E1,-8.020621033E0,2.133213959E0,-7.980354767E0,1.151377548E1
1.188953429E1,-8.002059631E0,2.152074738E0,-7.566914520E0,1.122152304E1
1.189953529E1,-7.643704834E0,2.245181122E0,-7.034172363E0,1.062763580E1
1.190953629E1,-7.161258087E0,2.370769958E0,-6.709497528E0,1.009561908E1
1.191953729E1,-6.777456207E0,2.541115723E0,-6.494245148E0,9.724525788E0
1.192953829E1,-6.547833710E0,2.626737671E0,-6.279741211E0,9.445053031E0
1.193953929E1,-6.495442657E0,2.647245026E0,-6.156697083E0,9.332930971E0
1.194954029E1,-6.567442932E0,2.573298798E0,-6.012397156E0,9.268338197E0
1.195954129E1,-6.642137604E0,2.383792877E0,-5.869444427E0,9.178825541E0
1.196954329E1,-6.706952820E0,2.158511353E0,-5.886059875E0,9.180854440E0
1.197954429E1,-6.613547058E0,1.942360840E0,-5.900579681E0,9.073511498E0
1.198954529E1,-6.429130554E0,1.766177216E0,-5.966742096E0,8.947352283E0
1.199954629E1,-6.272855530E0,1.733844452E0,-6.088588715E0,8.912117909E0
1.200954729E1,-6.313421173E0,1.810335388E0,-6.170019379E0,9.011422766E0
1.201954829E1,-6.468798065E0,1.934427338E0,-6.154302063E0,9.135797251E0
1.202954929E1,-6.592890015E0,2.093247070E0,-6.092779999E0,9.217909207E0
1.203955029E1,-6.660399628E0,2.323019257E0,-6.058950348E0,9.298829012E0
1.204955129E1,-6.698420563E0,2.581831055E0,-6.137686615E0,9.444886797E0
1.205955229E1,-6.768923950E0,2.910846863E0,-6.229595490E0,9.648793752E0
1.206955429E1,-6.904541931E0,3.239712982E0,-6.373596039E0,9.939374525E0
1.207955529E1,-7.076833649E0,3.483406219E0,-6.456074524E0,1.019296775E1
1.208955629E1,-7.242239685E0,3.607198792E0,-6.434369659E0,1.033745770E1
1.209955729E1,-7.372019806E0,3.605402527E0,-6.315217438E0,1.035507483E1
1.210955829E1,-7.499554596E0,3.494034119E0,-6.256090393E0,1.037257251E1
1.211955929E1,-7.658374329E0,3.387156372E0,-6.386618958E0,1.053149692E1
1.212956029E1,-7.792046356E0,3.352877655E0,-6.607559509E0,1.075256331E1
1.213956129E1,-7.830666046E0,3.367846527E0,-6.726112976E0,1.085828332E1
1.214956329E1,-7.750881958E0,3.398233337E0,-6.694678345E0,1.079087017E1
1.215956429E1,-7.578141174E0,3.428620148E0,-6.672524414E0,1.066331289E1
1.216956529E1,-7.349416809E0,3.487896881E0,-6.782845001E0,1.059180525E1
1.217956629E1,-7.204218750E0,3.632496185E0,-6.931186523E0,1.063659452E1
1.218956729E1,-7.059170380E0,3.734883270E0,-7.137008514E0,1.071065498E1
1.219956829E1,-6.978637848E0,3.744313660E0,-7.202123108E0,1.070475821E1
1.220956929E1,-6.941515045E0,3.755690002E0,-7.203769684E0,1.068569774E1
1.221957029E1,-6.931934967E0,3.747756500E0,-7.076234894E0,1.059105762E1
1.222957129E1,-7.044500885E0,3.800297241E0,-6.920259247E0,1.058098483E1
1.223957329E1,-7.229665833E0,3.968996429E0,-6.748865662E0,1.065683764E1
1.224957429E1,-7.377109222E0,4.115841064E0,-6.563401337E0,1.069766915E1
1.225957529E1,-7.597900085E0,4.270319824E0,-6.487658844E0,1.086523973E1
1.226957629E1,-7.913294220E0,4.509522400E0,-6.456373901E0,1.116426360E1
1.227957729E1,-8.167615356E0,4.741839294E0,-6.317313080E0,1.136236881E1
1.228957829E1,-8.209378510E0,4.897216187E0,-6.177653503E0,1.138156513E1
1.229957929E1,-7.896229706E0,4.866230621E0,-6.087391205E0,1.109445698E1
1.230958029E1,-7.322772217E0,4.561763763E0,-6.002517700E0,1.051013322E1
1.231958129E1,-6.813830566E0,4.138743439E0,-5.992488556E0,9.973334614E0
1.232958329E1,-6.547833710E0,3.820654907E0,-6.107449493E0,9.735115281E0
1.233958429E1,-6.497388611E0,3.648512878E0,-6.198759613E0,9.692900790E0
1.234958529E1,-6.520740051E0,3.682941284E0,-6.309828644E0,9.792754711E0
1.235958629E1,-6.534212036E0,3.852538605E0,-6.594536591E0,1.005116379E1
1.236958729E1,-6.470444641E0,4.149371338E0,-7.009773102E0,1.040292532E1
1.237958829E1,-6.282435608E0,4.416266327E0,-7.274273071E0,1.057768662E1
1.238958929E1,-6.046825562E0,4.602928162E0,-7.399412842E0,1.060671285E1
1.239959029E1,-5.713468781E0,4.725223846E0,-7.456593933E0,1.051533447E1
1.240959129E1,-5.395380249E0,4.753515015E0,-7.338788910E0,1.027442727E1
1.241959329E1,-5.220693512E0,4.811444550E0,-7.196434937E0,1.010912040E1
1.242959429E1,-5.131928101E0,4.897066498E0,-6.945556641E0,9.927673613E0
1.243959529E1,-5.190306702E0,5.014721832E0,-6.788533173E0,9.908122998E0
1.244959629E1,-5.360951843E0,5.164709930E0,-6.754254456E0,1.005156637E1
1.245959729E1,-5.659580841E0,5.393733673E0,-6.768624573E0,1.034105879E1
1.246959829E1,-6.019881592E0,5.601052551E0,-6.754404144E0,1.064108732E1
1.247959879E1,-6.348298645E0,5.750591583E0,-6.860383759E0,1.097429107E1
1.248959979E1,-6.562203827E0,5.901627502E0,-6.969207458E0,1.124551372E1
1.249960079E1,-6.619983673E0,6.029461670E0,-6.917415161E0,1.131499997E1
1.250960279E1,-6.527625732E0,6.081852722E0,-6.761289825E0,1.119436780E1
1.251960379E1,-6.411317596E0,6.150410156E0,-6.617438965E0,1.107804301E1
1.252960479E1,-6.437363434E0,6.331832886E0,-6.550677795E0,1.115540834E1
1.253960579E1,-6.569987640E0,6.564598846E0,-6.579268341E0,1.138180423E1
1.254960679E1,-6.617289276E0,6.736142120E0,-6.712191925E0,1.158523407E1
1.255960779E1,-6.471492462E0,6.539151764E0,-6.486161957E0,1.125659884E1
1.256960879E1,-5.642666016E0,6.075715485E0,-6.543043671E0,1.056245326E1
1.257960979E1,-4.887037354E0,6.036047974E0,-6.678961029E0,1.024331634E1
1.258961079E1,-4.813240814E0,6.499633942E0,-6.612349548E0,1.044680310E1
1.259961279E1,-4.902754669E0,6.795119476E0,-6.196813660E0,1.042166741E1
1.260961379E1,-5.011578369E0,6.790179749E0,-5.813610535E0,1.024795229E1
1.261961479E1,-4.859195251E0,6.666387177E0,-5.360652466E0,9.838144710E0
1.262961579E1,-4.485572205E0,6.356381836E0,-5.063220978E0,9.282249443E0
1.263961679E1,-4.047583008E0,5.976771240E0,-4.800068207E0,8.668643346E0
1.264961779E1,-3.656745758E0,5.605842590E0,-4.562961273E0,8.100486175E0
1.265961879E1,-3.282823334E0,5.447771301E0,-4.399800568E0,7.733911444E0
1.266961979E1,-3.062032471E0,5.423372040E0,-4.150269470E0,7.484233014E0
1.267962179E1,-2.912643127E0,5.506149902E0,-4.059258728E0,7.434968605E0
1.268962279E1,-2.714604950E0,5.704337769E0,-4.220323792E0,7.597347058E0
1.269962379E1,-2.324965210E0,6.065985718E0,-4.513563995E0,7.910366989E0
1.270962479E1,-1.873054962E0,6.537205811E0,-4.840035095E0,8.346815825E0
1.271962579E1,-1.431024170E0,7.077282715E0,-5.085674286E0,8.831752020E0
1.272962679E1,-9.916877747E-1,7.631430359E0,-5.429209900E0,9.417987795E0
1.273962779E1,-6.670129395E-1,8.059839478E0,-5.622458038E0,9.849769188E0
1.274962879E1,-3.405418396E-1,8.354726257E0,-5.493426361E0,1.000475651E1
1.275963079E1,5.957611084E-2,8.225694580E0,-5.016667786E0,9.634965299E0
1.276963179E1,4.769082642E-1,7.830815735E0,-4.498595123E0,9.043587488E0
1.277963279E1,7.762857056E-1,7.490573273E0,-4.138144684E0,8.592761423E0
1.278963379E1,8.204438782E-1,7.415878601E0,-4.035458221E0,8.482529495E0
1.279963479E1,8.089178467E-1,7.319928131E0,-4.082460480E0,8.420343193E0
1.280963579E1,8.415499878E-1,7.489824829E0,-4.079915771E0,8.570378933E0
1.281963679E1,9.693841553E-1,7.762407990E0,-4.067790985E0,8.817120104E0
1.282963779E1,1.044378204E0,8.081244965E0,-4.040397949E0,9.095166936E0
1.283963879E1,1.058149567E0,8.281528473E0,-3.886068878E0,9.208958990E0
1.284964079E1,1.096769257E0,8.217461700E0,-3.654500427E0,9.060074667E0
1.285964179E1,1.199605408E0,7.896229706E0,-3.472628632E0,8.709112832E0
1.286964279E1,1.337618408E0,7.459138641E0,-3.409609680E0,8.309838172E0
1.287964379E1,1.521136780E0,7.082372131E0,-3.399430847E0,8.001873668E0
1.288964479E1,1.749412079E0,6.731052704E0,-3.511398010E0,7.790855480E0
1.289964579E1,2.045945435E0,6.546486511E0,-3.788022766E0,7.835272480E0
1.290964679E1,2.241289215E0,6.560557251E0,-4.063749390E0,8.036065448E0
1.291964779E1,2.463427277E0,6.702462158E0,-4.413871307E0,8.394863480E0
1.292964879E1,2.680026855E0,6.875352631E0,-4.780009918E0,8.792127874E0
1.293965079E1,2.783910828E0,6.988666992E0,-5.263953552E0,9.181548498E0
1.294965179E1,2.959795074E0,7.054829407E0,-5.985303497E0,9.713643127E0
1.295965279E1,3.235970764E0,6.981332245E0,-6.781946869E0,1.025696398E1
1.296965379E1,3.616030426E0,6.575077057E0,-7.434589691E0,1.056316421E1
1.297965479E1,3.785777435E0,5.826633453E0,-7.015311584E0,9.874024753E0
1.298965579E1,3.239712982E0,4.876858521E0,-6.258934479E0,8.570516323E0
1.299965679E1,2.112556915E0,3.811224518E0,-5.469176788E0,6.992869496E0
1.300965779E1,7.744894409E-1,2.558778992E0,-4.262386322E0,5.031413418E0
1.301965979E1,-6.483018494E-1,1.345402222E0,-3.965553589E0,4.237454152E0
1.302966079E1,-1.569935303E0,3.794609070E-1,-4.683909760E0,4.954563358E0
1.303966179E1,-1.665736084E0,-6.315367126E-1,-5.382357330E0,5.669504895E0
1.304966279E1,-1.313069458E0,-1.509161682E0,-5.362448730E0,5.723423518E0
1.305966379E1,-8.833131409E-1,-2.733016663E0,-4.682712250E0,5.493397509E0
1.306966479E1,-7.611671448E-1,-4.037104797E0,-3.563639374E0,5.438484730E0
1.307966579E1,-1.402283936E0,-5.418582001E0,-2.856360168E0,6.283806533E0
1.308966679E1,-2.798430634E0,-6.276298370E0,-2.893632660E0,7.456288971E0
1.309966879E1,-4.368964691E0,-6.887178040E0,-2.949765930E0,8.673072862E0
1.310966979E1,-5.681435394E0,-7.560328217E0,-2.732567596E0,9.843992917E0
1.311967079E1,-6.684499512E0,-8.071215820E0,-2.180066528E0,1.070419304E1
1.312967179E1,-7.619455261E0,-8.266409912E0,-2.303559723E0,1.147588858E1
1.313967279E1,-8.670868835E0,-8.416248322E0,-2.783761139E0,1.240026323E1
1.314967379E1,-9.826465759E0,-7.611372070E0,-3.321443024E0,1.286562855E1
1.315967479E1,-1.127694946E1,-6.445746002E0,-3.669469299E0,1.349748998E1
1.316967579E1,-1.326676163E1,-5.046306152E0,-3.945644989E0,1.473228714E1
1.317967679E1,-1.573857147E1,-3.680396576E0,-4.866230621E0,1.687981491E1
1.318967879E1,-1.801054688E1,-2.744692383E0,-5.829477539E0,1.912840671E1
1.319967979E1,-1.896107025E1,-3.123704224E0,-6.001619568E0,2.013204288E1
1.320968079E1,-1.849943024E1,-4.675078125E0,-6.273454285E0,2.008585331E1
1.321968179E1,-1.836725510E1,-6.212231598E0,-7.257957001E0,2.070328044E1
1.322968279E1,-1.924023972E1,-7.104675751E0,-7.011569366E0,2.167545494E1
1.323968379E1,-2.022414368E1,-6.790479126E0,-5.553601227E0,2.204470641E1
1.324968479E1,-2.041769119E1,-6.133195953E0,-3.966152344E0,2.168475434E1
1.325968579E1,-1.956506424E1,-6.444249115E0,-3.270548859E0,2.085705097E1
1.326968679E1,-1.783990173E1,-6.586902466E0,-4.080514526E0,1.944993513E1
1.327968879E1,-1.562046707E1,-6.640790405E0,-7.003486176E0,1.836158782E1
1.328968979E1,-1.365475479E1,-6.848708038E0,-9.327403564E0,1.789853590E1
1.329969079E1,-1.230411346E1,-7.015760651E0,-1.156031021E1,1.828258400E1
1.330969179E1,-1.133742371E1,-6.794969788E0,-1.253508316E1,1.821639648E1
1.331969279E1,-1.045934967E1,-6.409970398E0,-1.187420746E1,1.707285913E1
1.332969379E1,-9.892328796E0,-6.221212921E0,-1.065229843E1,1.581243565E1
1.333969479E1,-9.589358826E0,-6.012846222E0,-9.678573303E0,1.489244451E1
1.334969579E1,-9.235644379E0,-5.854176178E0,-9.994266815E0,1.481397566E1
1.335969679E1,-9.384584656E0,-5.716911621E0,-1.160776154E1,1.598416828E1
1.336969879E1,-9.791887665E0,-5.934259644E0,-1.260139526E1,1.702620522E1
1.337969979E1,-1.018257523E1,-6.358028412E0,-1.297696426E1,1.767797966E1
1.338970079E1,-1.117695740E1,-6.374943237E0,-1.277817764E1,1.813411431E1
1.339970179E1,-1.254137009E1,-6.199657745E0,-1.222432938E1,1.857837314E1
1.340970279E1,-1.382629807E1,-5.735173645E0,-1.175595337E1,1.903315987E1
1.341970379E1,-1.437969727E1,-5.120851135E0,-1.102487366E1,1.882940915E1
1.342970479E1,-1.381926270E1,-4.920717316E0,-1.012853760E1,1.782618171E1
1.343970579E1,-1.281515076E1,-5.001100159E0,-9.381740570E0,1.665101042E1
1.344970779E1,-1.206341400E1,-5.424868927E0,-8.976533203E0,1.598540924E1
1.345970879E1,-1.149654282E1,-6.151757355E0,-8.556057587E0,1.559553579E1
1.346970979E1,-1.101095261E1,-6.672973480E0,-8.314310303E0,1.532636318E1
1.347971129E1,-1.059077637E1,-6.893315277E0,-8.128546600E0,1.502516587E1
1.348971229E1,-1.024888733E1,-7.054380341E0,-7.698939972E0,1.463139263E1
1.349971329E1,-1.004785538E1,-7.202123108E0,-7.410789185E0,1.441352737E1
1.350971429E1,-9.782606964E0,-7.128925323E0,-7.170538788E0,1.406902988E1
1.351971529E1,-9.339827728E0,-6.836732941E0,-6.963519287E0,1.350791990E1
1.352971729E1,-8.873247986E0,-6.640041962E0,-6.653364258E0,1.292640488E1
1.353971829E1,-8.481512604E0,-6.465953979E0,-6.668333130E0,1.257820669E1
1.354971929E1,-8.177943878E0,-6.234235840E0,-6.760990448E0,1.230672395E1
1.355972029E1,-7.894134064E0,-6.017336884E0,-6.808741150E0,1.203680405E1
1.356972129E1,-7.625143433E0,-5.754483490E0,-6.956034851E0,1.181707720E1
1.357972229E1,-7.414381714E0,-5.285359039E0,-7.129374390E0,1.156443062E1
1.358972329E1,-7.229516144E0,-4.859943695E0,-7.168892212E0,1.128175394E1
1.359972429E1,-6.944059753E0,-4.446802826E0,-6.938670959E0,1.077678876E1
1.360972529E1,-6.534661102E0,-4.107458496E0,-6.934030609E0,1.037563451E1
1.361972729E1,-6.056705017E0,-3.826193390E0,-7.047794037E0,1.004961852E1
1.362972829E1,-5.734425201E0,-3.499123535E0,-7.312743073E0,9.929940038E0
1.363972929E1,-5.697751465E0,-3.150348816E0,-7.592361603E0,1.000165107E1
1.364973029E1,-5.700595551E0,-2.753074951E0,-7.558382263E0,9.859277547E0
1.365973129E1,-5.885610809E0,-2.326462097E0,-7.645800476E0,9.925276087E0
1.366973229E1,-6.220763855E0,-1.926643524E0,-8.013885040E0,1.032628741E1
1.367973329E1,-6.389313354E0,-1.623074799E0,-8.386011200E0,1.066690587E1
1.368973429E1,-6.203699341E0,-1.345551910E0,-8.281229095E0,1.043432560E1
1.369973629E1,-5.875132599E0,-1.145867157E0,-8.334967346E0,1.026167020E1
1.370973729E1,-5.713319092E0,-8.714877319E-1,-8.454868011E0,1.024140122E1
1.371973829E1,-5.720803528E0,-5.562432861E-1,-8.428822174E0,1.020206072E1
1.372973929E1,-5.746999054E0,-2.275268555E-1,-8.307424622E0,1.010411156E1
1.373974029E1,-5.757477264E0,9.595046997E-2,-7.910599823E0,9.784443801E0
1.374974129E1,-5.561684418E0,1.598675537E-1,-7.553741913E0,9.381732680E0
1.375974229E1,-5.269641724E0,7.529342651E-2,-6.997498627E0,8.760124430E0
1.376974329E1,-4.977449341E0,-6.466552734E-2,-6.549779663E0,8.226712418E0
1.377974529E1,-4.890480194E0,1.097218323E-1,-6.403384094E0,8.058049595E0
1.378974629E1,-5.057981873E0,7.210505676E-1,-6.270011444E0,8.088024360E0
1.379974729E1,-5.643863525E0,1.739682312E0,-6.507866821E0,8.788175044E0
1.380974829E1,-6.543193359E0,2.978356476E0,-7.213349762E0,1.018412497E1
1.381974929E1,-7.529642029E0,4.250710602E0,-7.911797333E0,1.172009329E1
1.382975029E1,-7.801776123E0,5.058580627E0,-8.212521973E0,1.240574326E1
1.383975129E1,-6.577023010E0,4.847220154E0,-8.255183258E0,1.161468146E1
1.384975229E1,-5.272785187E0,4.687651978E0,-8.100854187E0,1.074244773E1
1.385975429E1,-4.519102478E0,4.606520691E0,-7.625143433E0,9.989250845E0
1.386975529E1,-3.834426270E0,4.312082977E0,-6.713389435E0,8.852484517E0
1.387975629E1,-2.965782623E0,3.687581635E0,-6.288123779E0,7.869855497E0
1.388975729E1,-1.726659393E0,2.900069275E0,-6.177354126E0,7.039279683E0
1.389975829E1,-2.504292297E-1,2.019749908E0,-6.126459961E0,6.455665430E0
1.390975929E1,1.130000153E0,1.227148132E0,-6.248755646E0,6.467591515E0
1.391976029E1,2.192341003E0,8.698411560E-1,-6.400090942E0,6.820861147E0
1.392976129E1,2.674039307E0,1.256038055E0,-6.660848694E0,7.286633182E0
1.393976229E1,2.526745605E0,2.370171204E0,-7.587721252E0,8.341203072E0
1.394976429E1,2.294279022E0,3.751199341E0,-8.352480927E0,9.439234628E0
1.395976529E1,2.206112366E0,5.103337555E0,-8.726403351E0,1.034703346E1
1.396976629E1,2.154918823E0,6.256689148E0,-8.896449738E0,1.108768020E1
1.397976729E1,1.993404694E0,6.967560883E0,-8.851692810E0,1.143997520E1
1.398976829E1,1.687291260E0,7.456144867E0,-8.572972412E0,1.148637907E1
1.399976929E1,1.193767548E0,7.520660706E0,-8.387657776E0,1.132864605E1
1.400977029E1,6.963519287E-1,7.376510468E0,-8.316555634E0,1.113835312E1
1.401977129E1,2.971321106E-1,7.308402100E0,-8.127049713E0,1.093389070E1
1.402977329E1,-4.834945679E-2,7.280260620E0,-7.818990326E0,1.068368579E1
1.403977429E1,-3.800596619E-1,7.278913422E0,-7.355703735E0,1.035535627E1
1.404977529E1,-6.063890076E-1,7.232360229E0,-6.750811615E0,9.912022981E0
1.405977629E1,-6.746470642E-1,7.084168396E0,-6.133645020E0,9.394795993E0
1.406977729E1,-5.930667114E-1,6.797514496E0,-5.658832397E0,8.864553883E0
1.407977829E1,-3.614982605E-1,6.507717133E0,-5.547014923E0,8.558646962E0
1.408977929E1,-8.846603394E-2,6.334826660E0,-5.569767609E0,8.435648539E0
1.409978029E1,2.730322266E-1,6.201603699E0,-5.498815155E0,8.292852533E0
1.410978229E1,6.575825500E-1,6.144871674E0,-5.279221802E0,8.127856146E0
1.411978329E1,9.154962158E-1,6.130052490E0,-4.752018127E0,7.810080226E0
1.412978429E1,9.243278503E-1,6.149062958E0,-4.049079895E0,7.420269889E0
1.413978529E1,8.038284302E-1,6.085445251E0,-3.438349915E0,7.035697136E0
1.414978629E1,7.041357422E-1,5.990392914E0,-3.263064423E0,6.857711268E0
1.415978729E1,5.860313416E-1,5.856271820E0,-3.709885254E0,6.957197781E0
1.416978829E1,6.508465576E-1,5.547014923E0,-4.270918579E0,7.030911840E0
1.417978929E1,8.134085083E-1,5.225633240E0,-4.904401245E0,7.212629738E0
1.418979129E1,8.072712708E-1,5.008285217E0,-5.019062805E0,7.136217427E0
1.419979229E1,6.002517700E-1,4.905748444E0,-4.643793182E0,6.781702227E0
1.420979329E1,2.324665833E-1,4.714446259E0,-4.266427917E0,6.362582134E0
1.421979429E1,-1.633103943E-1,4.488116913E0,-4.046235809E0,6.044988663E0
1.422979529E1,-3.932322693E-1,4.200864258E0,-3.743864594E0,5.640781349E0
1.423979629E1,-4.647834778E-1,3.755091248E0,-3.383114777E0,5.075647698E0
1.424979729E1,-4.987628174E-1,3.010090485E0,-2.985691223E0,4.268929743E0
1.425979829E1,-5.894741821E-1,2.113904114E0,-2.643802185E0,3.435951165E0
1.426980029E1,-7.985893250E-1,1.182091827E0,-2.326013031E0,2.728630173E0
1.427980129E1,-1.117725677E0,2.896476746E-1,-1.931433563E0,2.250253780E0
1.428980229E1,-1.472787323E0,-5.776487732E-1,-1.570084991E0,2.228889294E0
1.429980329E1,-1.870061188E0,-1.420545959E0,-1.177900543E0,2.627266518E0
1.430980429E1,-2.289638672E0,-2.144440613E0,-8.529263306E-1,3.250931269E0
1.431980529E1,-2.700234833E0,-2.736160126E0,-5.468128967E-1,3.882891285E0
1.432980629E1,-3.063379669E0,-3.128494263E0,-4.567002869E-1,4.402311495E0
1.433980729E1,-3.295546875E0,-3.310366058E0,-3.740721130E-1,4.686051919E0
1.434980929E1,-3.318299561E0,-3.387306061E0,-3.423381042E-1,4.754171821E0
1.435981029E1,-3.244952087E0,-3.410058746E0,-6.721023560E-1,4.754990671E0
1.436981129E1,-3.158282318E0,-3.507206726E0,-1.178199921E0,4.864504217E0
1.437981229E1,-3.220253448E0,-3.787274323E0,-1.692230988E0,5.251392652E0
1.438981329E1,-3.627406769E0,-4.172273712E0,-2.149979095E0,5.931977571E0
1.439981429E1,-4.501888275E0,-4.563410339E0,-2.376009064E0,6.836456029E0
1.440981529E1,-5.829776917E0,-5.165158997E0,-2.568658447E0,8.201412840E0
1.441981629E1,-7.699389038E0,-5.984854431E0,-2.415077820E0,1.004647575E1
1.442981829E1,-1.021296204E1,-7.053781586E0,-2.229613495E0,1.261077335E1
1.443981929E1,-1.325493622E1,-8.062384186E0,-2.703378296E0,1.574813091E1
1.444982029E1,-1.643537247E1,-8.710835724E0,-3.604953461E0,1.894718493E1
1.445982129E1,-1.891601395E1,-9.237440643E0,-3.940555573E0,2.141667275E1
1.446982229E1,-2.015124527E1,-9.366172943E0,-3.684887238E0,2.252501444E1
1.447982254E1,-1.986519012E1,-9.208251343E0,-2.728526001E0,2.206496149E1
1.448982354E1,-1.918350769E1,-1.016880386E1,-2.227817230E0,2.182600992E1
1.449982454E1,-1.871857452E1,-1.028481262E1,-2.304158478E0,2.148188886E1
1.450982654E1,-1.884146896E1,-1.045231430E1,-2.418670349E0,2.168183095E1
1.451982754E1,-1.961506027E1,-1.006222549E1,-4.930447083E0,2.259000398E1
1.452982854E1,-1.959455292E1,-9.039552155E0,-6.876849518E0,2.264842305E1
1.453982954E1,-1.801623505E1,-8.612490234E0,-7.834258575E0,2.145076504E1
1.454983054E1,-1.545925232E1,-9.355994110E0,-8.561147003E0,1.999540812E1
1.455983154E1,-1.251248016E1,-1.087338867E1,-9.046288147E0,1.888459876E1
1.456983254E1,-1.010937744E1,-1.191806625E1,-9.141041107E0,1.810520500E1
1.457983354E1,-8.386160889E0,-1.199889816E1,-9.713301086E0,1.756842251E1
1.458983554E1,-7.459288330E0,-1.141451340E1,-1.002046234E1,1.692163597E1
1.459983654E1,-7.475754089E0,-1.105960144E1,-1.065259781E1,1.707862768E1
1.460983754E1,-7.974965973E0,-1.058269318E1,-1.098580490E1,1.721282622E1
1.461983854E1,-8.722661133E0,-1.042402313E1,-1.167452271E1,1.791757673E1
1.462983954E1,-9.469009094E0,-9.899962921E0,-1.248329086E1,1.853385955E1
1.463984054E1,-9.867480469E0,-9.510622559E0,-1.260139526E1,1.861757973E1
1.464984154E1,-9.841434631E0,-9.104217682E0,-1.266157013E1,1.844060664E1
1.465984254E1,-9.789492645E0,-8.876840515E0,-1.251667145E1,1.820163531E1
1.466984454E1,-1.015203873E1,-8.673563232E0,-1.259361145E1,1.835466259E1
1.467984554E1,-1.057790314E1,-8.048163757E0,-1.233988907E1,1.813664348E1
1.468984654E1,-1.096245346E1,-7.290289764E0,-1.179457306E1,1.767584975E1
1.469984754E1,-1.132769394E1,-6.674320679E0,-1.093580887E1,1.710131931E1
1.470984854E1,-1.180445251E1,-6.151757355E0,-1.009665390E1,1.670723310E1
1.471984954E1,-1.231159790E1,-5.584287415E0,-9.083410950E0,1.628705201E1
1.472985054E1,-1.260124557E1,-5.276377716E0,-7.677085419E0,1.567064748E1
1.473985154E1,-1.263672180E1,-5.359754333E0,-6.451284485E0,1.516683144E1
1.474985354E1,-1.257744507E1,-5.729335785E0,-5.635031891E0,1.492551498E1
1.475985454E1,-1.262265106E1,-6.325995026E0,-5.250631256E0,1.506381962E1
1.476985554E1,-1.316392548E1,-6.925198975E0,-4.699028320E0,1.559898016E1
1.477985654E1,-1.383797379E1,-7.668702850E0,-4.603377228E0,1.647694158E1
1.478985754E1,-1.419228699E1,-8.469088440E0,-4.512965240E0,1.713223057E1
1.479985854E1,-1.404170013E1,-9.264534302E0,-4.474195862E0,1.740745148E1
1.480985954E1,-1.341989319E1,-9.915530548E0,-4.527185669E0,1.728891811E1
1.481986054E1,-1.267115021E1,-1.009126511E1,-4.785847778E0,1.689070804E1
1.482986254E1,-1.188288940E1,-9.530830536E0,-5.501210175E0,1.619577428E1
1.483986354E1,-1.091619965E1,-8.567284241E0,-6.354735260E0,1.526251730E1
1.484986454E1,-9.871372375E0,-7.833360443E0,-6.936126251E0,1.438455337E1
1.485986554E1,-8.878636780E0,-7.579638062E0,-7.497309265E0,1.387410359E1
1.486986654E1,-7.984845428E0,-7.427404633E0,-8.246201935E0,1.367201311E1
1.487986754E1,-7.232360229E0,-6.990163879E0,-8.908125458E0,1.343592664E1
1.488986854E1,-6.738537140E0,-6.360423431E0,-9.335187378E0,1.315327307E1
1.489987054E1,-6.582711182E0,-5.643564148E0,-1.009635452E1,1.330857909E1
1.490987154E1,-6.344107361E0,-5.146597595E0,-1.099867813E1,1.370058705E1
1.491987254E1,-6.068530426E0,-4.703668671E0,-1.174727142E1,1.403388565E1
1.492987354E1,-5.732628937E0,-4.350403290E0,-1.208945984E1,1.406926020E1
1.493987454E1,-5.428760834E0,-4.055067444E0,-1.210832062E1,1.387538988E1
1.494987554E1,-5.425916748E0,-3.667523346E0,-1.225172241E1,1.389230010E1
1.495987654E1,-5.532644806E0,-3.196452942E0,-1.198407898E1,1.358107577E1
1.496987754E1,-5.836961975E0,-2.573897552E0,-1.161614410E1,1.325254231E1
1.497987854E1,-6.247408447E0,-1.965562592E0,-1.083117645E1,1.265732720E1
1.498988054E1,-6.372997284E0,-1.613794098E0,-9.934391327E0,1.191266372E1
1.499988154E1,-6.116730194E0,-1.220112762E0,-8.449479218E0,1.050222655E1
1.500988254E1,-5.444328461E0,-7.047344971E-1,-6.081703033E0,8.192952757E0
1.501988354E1,-4.833748169E0,-6.930587769E-2,-4.168082428E0,6.383011499E0
1.502988454E1,-4.470004578E0,6.873706055E-1,-2.966231689E0,5.408507161E0
1.503988554E1,-4.015848999E0,1.478774872E0,-2.379451904E0,4.896489525E0
1.504988654E1,-3.164718933E0,2.111509094E0,-2.508633270E0,4.557099677E0
1.505988854E1,-2.270777893E0,2.023342438E0,-3.370241547E0,4.539699874E0
1.506988954E1,-1.602567444E0,1.628613281E0,-4.669839020E0,5.198846036E0
1.507989054E1,-1.248254242E0,1.516496429E0,-5.400918732E0,5.746983837E0
1.508989154E1,-1.126557312E0,1.859732666E0,-6.162085876E0,6.534450192E0
1.509989254E1,-8.631051636E-1,2.395169220E0,-6.643634491E0,7.114749846E0
1.510989354E1,-2.354603577E-1,2.875370636E0,-6.867718506E0,7.449077483E0
1.511989454E1,5.815406799E-1,3.301684113E0,-6.800208893E0,7.581698261E0
1.512989554E1,1.391506348E0,3.564986572E0,-6.636449432E0,7.660801541E0
1.513989754E1,1.980531464E0,3.863914948E0,-6.357878723E0,7.699023669E0
1.514989854E1,2.168091431E0,4.200714569E0,-6.284680939E0,7.864085315E0
1.515989954E1,2.095492401E0,4.608167267E0,-6.128256226E0,7.948699160E0
1.516990054E1,1.955234070E0,4.800367584E0,-5.906417542E0,7.858259183E0
1.517990154E1,1.967358856E0,4.795427856E0,-5.622757416E0,7.647354454E0
1.518990254E1,2.263742523E0,4.636608124E0,-4.988376617E0,7.176807534E0
1.519990354E1,2.741698608E0,4.302951965E0,-4.342469788E0,6.699951547E0
1.520990454E1,3.097808075E0,4.048481140E0,-4.130510559E0,6.561077037E0
1.521990654E1,3.385360107E0,4.005819855E0,-3.824247437E0,6.490926299E0
1.522990754E1,3.436403961E0,4.144431610E0,-3.569477234E0,6.459593894E0
1.523990854E1,3.415746918E0,4.230802002E0,-2.991529083E0,6.206146859E0
1.524990954E1,3.086731110E0,4.105662231E0,-2.322869568E0,5.637383642E0
1.525991054E1,2.439477081E0,3.714076538E0,-1.910776520E0,4.836990787E0
1.526991154E1,1.676363983E0,3.219205627E0,-1.599873047E0,3.966494024E0
1.527991254E1,1.073118439E0,2.756218414E0,-1.418300629E0,3.280228621E0
1.528991454E1,7.764353943E-1,2.255509644E0,-1.393152924E0,2.762435654E0
1.529991554E1,6.866221619E-1,1.705403595E0,-1.353485413E0,2.282931050E0
1.530991654E1,6.670129395E-1,1.182989960E0,-1.243314514E0,1.841250251E0
1.531991754E1,5.077441406E-1,6.072871399E-1,-9.921368408E-1,1.269227046E0
1.532991854E1,7.214996338E-2,7.394622803E-2,-6.791377258E-1,6.869510263E-1
1.533991954E1,-5.233117676E-1,-3.029699707E-1,-3.118016052E-1,6.803427447E-1
1.534992054E1,-9.931846619E-1,-5.715115356E-1,-2.736309814E-1,1.178098095E0
1.535992154E1,-1.275647278E0,-6.021977234E-1,-3.793112183E-1,1.460751545E0
1.536992354E1,-1.318158875E0,-8.548722839E-1,-6.156697083E-1,1.687423666E0
1.537992454E1,-1.282383270E0,-1.266216888E0,-1.246907043E0,2.191481060E0
1.538992554E1,-1.331780548E0,-2.066901855E0,-2.338137817E0,3.393023896E0
1.539992654E1,-1.440304871E0,-2.873424683E0,-3.460054779E0,4.722608030E0
1.540992754E1,-1.403631134E0,-4.249962158E0,-3.849993896E0,5.903796381E0
1.541992854E1,-1.373543701E0,-5.932912445E0,-3.894900513E0,7.228853463E0
1.542992954E1,-1.729054413E0,-7.739655304E0,-4.243525543E0,8.994409509E0
1.543993054E1,-2.540666656E0,-9.393715668E0,-4.588258667E0,1.075867086E1
1.544993254E1,-3.778143311E0,-1.077788727E1,-4.713099060E0,1.235518205E1
1.545993354E1,-5.628146210E0,-1.131991013E1,-5.088817749E0,1.362763593E1
1.546993454E1,-7.632029114E0,-1.114522339E1,-5.253175964E0,1.449343750E1
1.547993629E1,-9.307944031E0,-1.062490540E1,-5.474864960E0,1.514927665E1
1.548993729E1,-1.063882645E1,-9.640402679E0,-6.040838013E0,1.557606227E1
1.549993829E1,-1.175430679E1,-8.724307709E0,-6.493796082E0,1.601395206E1
1.550993929E1,-1.308309357E1,-8.242908783E0,-7.223528595E0,1.706728590E1
1.551994129E1,-1.453178101E1,-8.288563843E0,-8.509354706E0,1.876917865E1
1.552994229E1,-1.595053070E1,-8.761729889E0,-1.043989014E1,2.098043485E1
1.553994329E1,-1.733395386E1,-9.257349243E0,-1.205039108E1,2.305160291E1
1.554994429E1,-1.897648819E1,-9.885592804E0,-1.221145615E1,2.463638996E1
1.555994529E1,-2.018941589E1,-1.026789780E1,-1.070394104E1,2.505227720E1
1.556994629E1,-2.111643814E1,-1.056473053E1,-7.740104370E0,2.484807249E1
1.557994729E1,-2.213477051E1,-1.114163086E1,-4.678371277E0,2.521846866E1
1.558994829E1,-2.251527924E1,-1.031654663E1,-3.858077087E0,2.506498937E1
1.559995029E1,-2.133992340E1,-7.884703674E0,-5.399721222E0,2.338199889E1
1.560995129E1,-1.924038940E1,-7.582033081E0,-6.217321014E0,2.159478851E1
1.561995229E1,-1.684896240E1,-9.207053833E0,-6.626420288E0,2.031174094E1
1.562995329E1,-1.455243805E1,-1.164683029E1,-7.556286621E0,2.011267204E1
1.563995429E1,-1.238928635E1,-1.392838577E1,-7.304061127E0,2.002108027E1
1.564995529E1,-1.084300186E1,-1.486828125E1,-7.347770233E0,1.981479760E1
1.565995629E1,-9.082512817E0,-1.469389389E1,-7.267088013E0,1.874068102E1
1.566995729E1,-7.327711945E0,-1.435454956E1,-7.770341492E0,1.789208379E1
1.567995929E1,-6.277944946E0,-1.471919128E1,-8.188422089E0,1.797546776E1
1.568996029E1,-6.149212646E0,-1.467293747E1,-8.505762177E0,1.804039635E1
1.569996129E1,-6.231840820E0,-1.501332962E1,-8.802145844E0,1.848549912E1
1.570996229E1,-6.615942078E0,-1.504775803E1,-8.580905914E0,1.854286001E1
1.571996329E1,-7.496261444E0,-1.476649292E1,-9.174272003E0,1.893173303E1
1.572996429E1,-8.277486877E0,-1.402882690E1,-1.033750305E1,1.929219383E1
1.573996529E1,-8.835526428E0,-1.346210541E1,-1.114178055E1,1.958147295E1
1.574996729E1,-9.357041931E0,-1.290780807E1,-1.252939499E1,2.027687061E1
1.575996829E1,-1.012748978E1,-1.182002014E1,-1.345731537E1,2.057615762E1
1.576996929E1,-1.128428421E1,-1.035097504E1,-1.344938187E1,2.038047171E1
1.577997029E1,-1.268192780E1,-8.640931091E0,-1.278626083E1,1.997462012E1
1.578997129E1,-1.382420242E1,-7.027885437E0,-1.184876038E1,1.951647685E1
1.579997229E1,-1.436532715E1,-6.164181519E0,-1.064646057E1,1.891314042E1
1.580997329E1,-1.442864548E1,-6.158044281E0,-9.141939240E0,1.815715762E1
1.581997429E1,-1.459285400E1,-6.682852936E0,-8.122858429E0,1.798868368E1
1.582997629E1,-1.510913040E1,-7.424111481E0,-7.010671234E0,1.823602928E1
1.583997729E1,-1.559501999E1,-8.200247498E0,-6.113437042E0,1.865000858E1
1.584997829E1,-1.587838074E1,-9.030720520E0,-5.869444427E0,1.918664290E1
1.585997929E1,-1.624062744E1,-9.800120544E0,-5.619464264E0,1.978329399E1
1.586998029E1,-1.653267014E1,-1.030681686E1,-4.994513855E0,2.011230530E1
1.587998129E1,-1.645962204E1,-1.066053131E1,-4.696184235E0,2.016482660E1
1.588998229E1,-1.590128311E1,-1.058912979E1,-4.829556885E0,1.970545848E1
1.589998329E1,-1.439751022E1,-1.009291168E1,-5.119204559E0,1.831287586E1
1.590998529E1,-1.215053284E1,-9.474098511E0,-6.162085876E0,1.659413430E1
1.591998629E1,-1.004141876E1,-8.835077362E0,-7.043003998E0,1.511597129E1
1.592998729E1,-8.490344238E0,-8.293353882E0,-7.758665771E0,1.417965297E1
1.593998829E1,-7.450157318E0,-7.909402313E0,-8.307574310E0,1.367769279E1
1.594998929E1,-6.795718231E0,-7.712861023E0,-8.716224518E0,1.347748423E1
1.595999029E1,-6.428980865E0,-7.581584015E0,-9.169931030E0,1.352404696E1
1.596999129E1,-6.114185486E0,-7.304061127E0,-9.555529175E0,1.349224633E1
1.597999329E1,-5.566624146E0,-6.785689087E0,-9.610764313E0,1.301536290E1
1.598999429E1,-4.910987549E0,-6.063740387E0,-9.372609558E0,1.219559577E1
1.599999529E1,-4.170327759E0,-5.353617096E0,-9.315578156E0,1.152531327E1
1.600999629E1,-3.558549957E0,-4.716392212E0,-9.125473480E0,1.087114987E1
1.601999729E1,-3.043770447E0,-4.182901611E0,-8.660540314E0,1.008792164E1
1.602999829E1,-2.643502808E0,-3.576512604E0,-8.036038971E0,9.184632374E0
1.603999929E1,-2.531685333E0,-2.861898651E0,-7.856562195E0,8.736444588E0
1.605000129E1,-2.575244751E0,-2.074985046E0,-7.740254059E0,8.417183696E0
1.606000229E1,-2.583777008E0,-9.651928711E-1,-7.444768524E0,7.939274481E0
1.607000329E1,-2.408042450E0,1.419049072E-1,-7.164850616E0,7.560019167E0
1.608000429E1,-1.998344421E0,1.079854431E0,-6.914870453E0,7.278385769E0
1.609000529E1,-1.354982300E0,1.659000092E0,-6.452032928E0,6.798307675E0
1.610000629E1,-6.499484253E-1,1.766775970E0,-5.882167969E0,6.176069162E0
1.611000729E1,-9.400451660E-2,1.864373016E0,-5.373376007E0,5.688399890E0
1.612000829E1,9.131011963E-2,2.093247070E0,-5.040917358E0,5.459017187E0
1.613001029E1,2.612068176E-1,2.720891876E0,-4.803960114E0,5.527161512E0
1.614001129E1,5.701643372E-1,3.201692047E0,-4.465813293E0,5.524437320E0
1.615001229E1,1.128652954E0,3.574866028E0,-4.094136200E0,5.551168871E0
1.616001329E1,1.753303986E0,3.938609619E0,-3.640878754E0,5.642935291E0
1.617001429E1,2.176174622E0,4.015549622E0,-3.069067841E0,5.502685904E0
1.618001529E1,2.422113190E0,3.869004364E0,-2.243684235E0,5.086250684E0
1.619001629E1,2.500849457E0,3.635639648E0,-1.216220856E0,4.577260843E0
1.620001829E1,2.331401825E0,3.645369415E0,-7.054829407E-1,4.384274036E0
1.621001929E1,2.058818665E0,3.881428528E0,-1.640289001E0,4.689858177E0
1.622002029E1,2.297871552E0,4.106111298E0,-2.792443085E0,5.471572172E0
1.623002129E1,3.038830719E0,4.198020172E0,-3.122357025E0,6.050370145E0
1.624002229E1,3.806584167E0,4.056264954E0,-3.218906250E0,6.426875278E0
1.625002329E1,4.327051849E0,3.745810547E0,-3.080893250E0,6.499721346E0
1.626002429E1,4.442461853E0,3.387306061E0,-3.632196808E0,6.663494827E0
1.627002629E1,4.369114380E0,2.991529083E0,-4.321064301E0,6.834471699E0
1.628002729E1,4.270768890E0,2.368973694E0,-4.557722168E0,6.680144807E0
1.629002829E1,4.142934723E0,1.472787323E0,-4.630470886E0,6.385473455E0
1.630002929E1,3.732637939E0,3.104544067E-1,-4.460723877E0,5.824691016E0
1.631003029E1,2.818339233E0,-8.220904541E-1,-4.290677490E0,5.198921241E0
1.632003129E1,1.572180634E0,-1.909579010E0,-4.284091187E0,4.946886014E0
1.633003229E1,4.152365112E-1,-2.529589691E0,-4.142186279E0,4.871237270E0
1.634003429E1,-3.700305176E-1,-3.331472168E0,-3.966451721E0,5.193107802E0
1.635003529E1,-1.071022797E0,-3.844006348E0,-3.970643005E0,5.629341037E0
1.636003629E1,-1.807491302E0,-4.612208862E0,-4.327500916E0,6.577747302E0
1.637003729E1,-2.382295990E0,-5.272934875E0,-4.914131012E0,7.591301600E0
1.638003829E1,-2.540516968E0,-6.063890076E0,-4.949457550E0,8.229345014E0
1.639003929E1,-2.185605011E0,-7.085216217E0,-4.179608459E0,8.511538344E0
1.640004029E1,-1.846560059E0,-8.021668854E0,-3.322041779E0,8.876537435E0
1.641004129E1,-1.980681152E0,-9.541009369E0,-2.946772156E0,1.018024674E1
1.642004329E1,-2.596500549E0,-1.078133011E1,-3.108885040E0,1.151712031E1
1.643004429E1,-3.479813690E0,-1.165162033E1,-3.300336914E0,1.260006283E1
1.644004529E1,-4.572391663E0,-1.241623032E1,-3.965403900E0,1.381281901E1
1.645004629E1,-5.901178436E0,-1.299313065E1,-4.999303894E0,1.512079331E1
1.646004729E1,-7.624993744E0,-1.398182465E1,-5.771548004E0,1.693938359E1
1.647004829E1,-9.915081482E0,-1.484657639E1,-6.852899323E0,1.912307246E1
1.648004883E1,-1.231713638E1,-1.531375488E1,-7.651488647E0,2.108952858E1
